trialType,trial,purpleBet,response,betScaling,score,RT,nHits,pinkBet,exploded,confidence,ballColour,subjectID
trial,1,,1,,0,2233.7999999999956,0,,False,0.5,grey,1gfPXeiIe6W3NmamHu6phX2lrno1
trial,2,,1,,-50,1117.5,0,,True,0.5,grey,1gfPXeiIe6W3NmamHu6phX2lrno1
trial,3,,1,,-100,8165.5999999999985,0,,True,0.5,grey,1gfPXeiIe6W3NmamHu6phX2lrno1
trial,4,,1,,-150,3216.0,0,,True,0.5,grey,1gfPXeiIe6W3NmamHu6phX2lrno1
trial,5,,2,,-200,2249.199999999997,0,,True,0.5,grey,1gfPXeiIe6W3NmamHu6phX2lrno1
trial,6,,2,,-100,2466.0999999999985,1,,False,0.5,grey,1gfPXeiIe6W3NmamHu6phX2lrno1
trial,7,,2,,0,2648.9999999999927,2,,False,0.5,grey,1gfPXeiIe6W3NmamHu6phX2lrno1
trial,8,,2,,100,2066.399999999994,3,,False,0.5,grey,1gfPXeiIe6W3NmamHu6phX2lrno1
trial,9,,1,,200,2233.300000000003,4,,False,0.5,grey,1gfPXeiIe6W3NmamHu6phX2lrno1
trial,10,,1,,300,2999.800000000003,5,,False,0.5,grey,1gfPXeiIe6W3NmamHu6phX2lrno1
trial,11,,1,,300,4199.900000000009,5,,False,0.5,grey,1gfPXeiIe6W3NmamHu6phX2lrno1
trial,12,,2,,400,2334.399999999994,6,,False,0.5,grey,1gfPXeiIe6W3NmamHu6phX2lrno1
trial,13,,1,,350,2067.4000000000087,6,,True,0.5,grey,1gfPXeiIe6W3NmamHu6phX2lrno1
trial,14,,2,,450,1299.8999999999942,7,,False,0.5,grey,1gfPXeiIe6W3NmamHu6phX2lrno1
trial,15,,2,,550,3450.899999999994,8,,False,0.5,grey,1gfPXeiIe6W3NmamHu6phX2lrno1
trial,16,,1,,500,1983.699999999997,8,,True,0.5,grey,1gfPXeiIe6W3NmamHu6phX2lrno1
trial,17,,2,,600,1867.0,9,,False,0.5,grey,1gfPXeiIe6W3NmamHu6phX2lrno1
trial,18,,1,,550,3283.300000000003,9,,True,0.5,grey,1gfPXeiIe6W3NmamHu6phX2lrno1
trial,19,,2,,500,899.3000000000029,9,,True,0.5,grey,1gfPXeiIe6W3NmamHu6phX2lrno1
trial,20,,1,,450,3116.4000000000087,9,,True,0.5,grey,1gfPXeiIe6W3NmamHu6phX2lrno1
trial,21,,2,,400,1133.0999999999913,9,,True,0.5,grey,1gfPXeiIe6W3NmamHu6phX2lrno1
trial,22,,1,,500,3850.9000000000087,10,,False,0.5,grey,1gfPXeiIe6W3NmamHu6phX2lrno1
trial,23,,2,,450,3583.0,10,,True,0.5,grey,1gfPXeiIe6W3NmamHu6phX2lrno1
trial,24,,1,,400,2250.0,10,,True,0.5,grey,1gfPXeiIe6W3NmamHu6phX2lrno1
trial,25,,2,,350,1082.2999999999884,10,,True,0.5,grey,1gfPXeiIe6W3NmamHu6phX2lrno1
trial,26,,1,,450,1233.7000000000116,11,,False,0.5,grey,1gfPXeiIe6W3NmamHu6phX2lrno1
trial,27,,1,,400,1950.6999999999825,11,,True,0.5,grey,1gfPXeiIe6W3NmamHu6phX2lrno1
trial,28,,2,,350,983.1999999999825,11,,True,0.5,grey,1gfPXeiIe6W3NmamHu6phX2lrno1
trial,29,,2,,300,948.8999999999942,11,,True,0.5,grey,1gfPXeiIe6W3NmamHu6phX2lrno1
trial,30,,2,,400,717.5,12,,False,0.5,grey,1gfPXeiIe6W3NmamHu6phX2lrno1
trial,31,,1,,350,1433.0,12,,True,0.5,grey,1gfPXeiIe6W3NmamHu6phX2lrno1
trial,32,,2,,300,1365.7000000000116,12,,True,0.5,grey,1gfPXeiIe6W3NmamHu6phX2lrno1
trial,33,,2,,250,817.6000000000058,12,,True,0.5,grey,1gfPXeiIe6W3NmamHu6phX2lrno1
trial,34,,2,,200,649.1000000000058,12,,True,0.5,grey,1gfPXeiIe6W3NmamHu6phX2lrno1
trial,35,,1,,300,1066.1000000000058,13,,False,0.5,grey,1gfPXeiIe6W3NmamHu6phX2lrno1
trial,36,,1,,250,1699.1999999999825,13,,True,0.5,grey,1gfPXeiIe6W3NmamHu6phX2lrno1
trial,37,,1,,350,1217.3000000000175,14,,False,0.5,grey,1gfPXeiIe6W3NmamHu6phX2lrno1
trial,38,,1,,450,2001.0,15,,False,0.5,grey,1gfPXeiIe6W3NmamHu6phX2lrno1
trial,39,,1,,550,1683.3000000000175,16,,False,0.5,grey,1gfPXeiIe6W3NmamHu6phX2lrno1
trial,40,,1,,500,1866.2999999999884,16,,True,0.5,grey,1gfPXeiIe6W3NmamHu6phX2lrno1
trial,41,,1,,450,1049.8999999999942,16,,True,0.5,grey,1gfPXeiIe6W3NmamHu6phX2lrno1
trial,42,,1,,400,0.0,16,,True,0.5,grey,1gfPXeiIe6W3NmamHu6phX2lrno1
trial,43,,1,,350,1532.6000000000058,16,,True,0.5,grey,1gfPXeiIe6W3NmamHu6phX2lrno1
trial,44,,2,,450,1166.5,17,,False,0.5,grey,1gfPXeiIe6W3NmamHu6phX2lrno1
trial,45,,1,,400,2334.1999999999825,17,,True,0.5,grey,1gfPXeiIe6W3NmamHu6phX2lrno1
trial,46,,2,,400,699.5,17,,False,0.5,grey,1gfPXeiIe6W3NmamHu6phX2lrno1
trial,47,,1,,500,3033.1999999999825,18,,False,0.5,grey,1gfPXeiIe6W3NmamHu6phX2lrno1
trial,48,,2,,600,1700.0,19,,False,0.5,grey,1gfPXeiIe6W3NmamHu6phX2lrno1
trial,49,,1,,700,1533.6000000000058,20,,False,0.5,grey,1gfPXeiIe6W3NmamHu6phX2lrno1
trial,50,,2,,650,1334.3000000000175,20,,True,0.5,grey,1gfPXeiIe6W3NmamHu6phX2lrno1
trial,51,,1,,600,1017.5,20,,True,0.5,grey,1gfPXeiIe6W3NmamHu6phX2lrno1
trial,52,,2,,700,899.5999999999767,21,,False,0.5,grey,1gfPXeiIe6W3NmamHu6phX2lrno1
trial,53,,1,,650,2116.5,21,,True,0.5,grey,1gfPXeiIe6W3NmamHu6phX2lrno1
trial,54,,2,,750,567.5,22,,False,0.5,grey,1gfPXeiIe6W3NmamHu6phX2lrno1
trial,55,,2,,850,1817.0,23,,False,0.5,grey,1gfPXeiIe6W3NmamHu6phX2lrno1
trial,56,,1,,800,1466.6000000000058,23,,True,0.5,grey,1gfPXeiIe6W3NmamHu6phX2lrno1
trial,57,,2,,750,716.7000000000116,23,,True,0.5,grey,1gfPXeiIe6W3NmamHu6phX2lrno1
trial,58,,2,,850,650.5999999999767,24,,False,0.5,grey,1gfPXeiIe6W3NmamHu6phX2lrno1
trial,59,,2,,800,5050.799999999988,24,,True,0.5,grey,1gfPXeiIe6W3NmamHu6phX2lrno1
trial,60,,1,,750,734.0999999999767,24,,True,0.5,grey,1gfPXeiIe6W3NmamHu6phX2lrno1
trial,61,,2,,700,683.7000000000116,24,,True,0.5,grey,1gfPXeiIe6W3NmamHu6phX2lrno1
trial,62,,2,,650,1349.5,24,,True,0.5,grey,1gfPXeiIe6W3NmamHu6phX2lrno1
trial,63,,1,,600,3400.0,24,,True,0.5,grey,1gfPXeiIe6W3NmamHu6phX2lrno1
trial,64,,2,,550,532.3999999999942,24,,True,0.5,grey,1gfPXeiIe6W3NmamHu6phX2lrno1
trial,65,,2,,500,1634.1999999999825,24,,True,0.5,grey,1gfPXeiIe6W3NmamHu6phX2lrno1
trial,66,,2,,450,749.6000000000058,24,,True,0.5,grey,1gfPXeiIe6W3NmamHu6phX2lrno1
trial,67,,1,,450,833.2000000000116,24,,False,0.5,grey,1gfPXeiIe6W3NmamHu6phX2lrno1
trial,68,,1,,550,1316.5999999999767,25,,False,0.5,grey,1gfPXeiIe6W3NmamHu6phX2lrno1
trial,69,,1,,650,1450.0,26,,False,0.5,grey,1gfPXeiIe6W3NmamHu6phX2lrno1
trial,70,,2,,750,1334.2999999999884,27,,False,0.5,grey,1gfPXeiIe6W3NmamHu6phX2lrno1
trial,71,,2,,700,1533.2000000000116,27,,True,0.5,grey,1gfPXeiIe6W3NmamHu6phX2lrno1
trial,72,,2,,650,950.8999999999651,27,,True,0.5,grey,1gfPXeiIe6W3NmamHu6phX2lrno1
trial,73,,2,,750,565.9000000000233,28,,False,0.5,grey,1gfPXeiIe6W3NmamHu6phX2lrno1
trial,74,,1,,850,1515.899999999965,29,,False,0.5,grey,1gfPXeiIe6W3NmamHu6phX2lrno1
trial,75,,1,,950,1500.0,30,,False,0.5,grey,1gfPXeiIe6W3NmamHu6phX2lrno1
trial,76,,1,,900,1282.6999999999534,30,,True,0.5,grey,1gfPXeiIe6W3NmamHu6phX2lrno1
trial,77,,2,,850,649.8999999999651,30,,True,0.5,grey,1gfPXeiIe6W3NmamHu6phX2lrno1
trial,78,,2,,800,634.1999999999534,30,,True,0.5,grey,1gfPXeiIe6W3NmamHu6phX2lrno1
trial,79,,1,,800,483.5,30,,False,0.5,grey,1gfPXeiIe6W3NmamHu6phX2lrno1
trial,80,,1,,750,400.0999999999767,30,,True,0.5,grey,1gfPXeiIe6W3NmamHu6phX2lrno1
trial,81,,2,,700,684.1000000000349,30,,True,0.5,grey,1gfPXeiIe6W3NmamHu6phX2lrno1
trial,82,,1,,800,300.0999999999767,31,,False,0.5,grey,1gfPXeiIe6W3NmamHu6phX2lrno1
trial,83,,1,,900,1716.0,32,,False,0.5,grey,1gfPXeiIe6W3NmamHu6phX2lrno1
trial,84,,2,,1000,867.1999999999534,33,,False,0.5,grey,1gfPXeiIe6W3NmamHu6phX2lrno1
trial,85,,1,,950,1566.9000000000233,33,,True,0.5,grey,1gfPXeiIe6W3NmamHu6phX2lrno1
trial,86,,2,,950,717.1000000000349,33,,False,0.5,grey,1gfPXeiIe6W3NmamHu6phX2lrno1
trial,87,,2,,1050,332.29999999998836,34,,False,0.5,grey,1gfPXeiIe6W3NmamHu6phX2lrno1
trial,88,,2,,1000,1583.2999999999884,34,,True,0.5,grey,1gfPXeiIe6W3NmamHu6phX2lrno1
trial,89,,1,,1100,867.5,35,,False,0.5,grey,1gfPXeiIe6W3NmamHu6phX2lrno1
trial,90,,2,,1200,1683.1999999999534,36,,False,0.5,grey,1gfPXeiIe6W3NmamHu6phX2lrno1
trial,91,,1,,1300,1434.1999999999534,37,,False,0.5,grey,1gfPXeiIe6W3NmamHu6phX2lrno1
trial,92,,2,,1250,1616.4000000000233,37,,True,0.5,grey,1gfPXeiIe6W3NmamHu6phX2lrno1
trial,93,,1,,1350,667.2000000000116,38,,False,0.5,grey,1gfPXeiIe6W3NmamHu6phX2lrno1
trial,94,,2,,1300,1333.399999999965,38,,True,0.5,grey,1gfPXeiIe6W3NmamHu6phX2lrno1
trial,95,,1,,1400,533.3999999999651,39,,False,0.5,grey,1gfPXeiIe6W3NmamHu6phX2lrno1
trial,96,,1,,1500,1399.0,40,,False,0.5,grey,1gfPXeiIe6W3NmamHu6phX2lrno1
trial,97,,2,,1450,782.5,40,,True,0.5,grey,1gfPXeiIe6W3NmamHu6phX2lrno1
trial,98,,2,,1400,632.4000000000233,40,,True,0.5,grey,1gfPXeiIe6W3NmamHu6phX2lrno1
trial,99,,1,,1500,884.1000000000349,41,,False,0.5,grey,1gfPXeiIe6W3NmamHu6phX2lrno1
trial,100,,1,,1450,1499.0999999999767,41,,True,0.5,grey,1gfPXeiIe6W3NmamHu6phX2lrno1
trial,101,,2,,1400,649.9000000000233,41,,True,0.5,grey,1gfPXeiIe6W3NmamHu6phX2lrno1
trial,102,,1,,1400,700.7999999999884,41,,False,0.5,grey,1gfPXeiIe6W3NmamHu6phX2lrno1
trial,103,,1,,1500,249.0,42,,False,0.5,grey,1gfPXeiIe6W3NmamHu6phX2lrno1
trial,104,,1,,1450,1884.0999999999767,42,,True,0.5,grey,1gfPXeiIe6W3NmamHu6phX2lrno1
trial,105,,1,,1450,666.7999999999884,42,,False,0.5,grey,1gfPXeiIe6W3NmamHu6phX2lrno1
trial,106,,1,,1400,1767.2999999999884,42,,True,0.5,grey,1gfPXeiIe6W3NmamHu6phX2lrno1
trial,107,,2,,1350,666.5,42,,True,0.5,grey,1gfPXeiIe6W3NmamHu6phX2lrno1
trial,108,,2,,1350,582.7000000000116,42,,False,0.5,grey,1gfPXeiIe6W3NmamHu6phX2lrno1
trial,109,,1,,1300,83.39999999996508,42,,True,0.5,grey,1gfPXeiIe6W3NmamHu6phX2lrno1
trial,110,,2,,1400,633.0,43,,False,0.5,grey,1gfPXeiIe6W3NmamHu6phX2lrno1
trial,111,,1,,1500,1450.5,44,,False,0.5,grey,1gfPXeiIe6W3NmamHu6phX2lrno1
trial,112,,1,,1600,1416.0999999999767,45,,False,0.5,grey,1gfPXeiIe6W3NmamHu6phX2lrno1
trial,113,,2,,1550,1832.5999999999767,45,,True,0.5,grey,1gfPXeiIe6W3NmamHu6phX2lrno1
trial,114,,2,,1500,549.5,45,,True,0.5,grey,1gfPXeiIe6W3NmamHu6phX2lrno1
trial,115,,2,,1450,617.6000000000349,45,,True,0.5,grey,1gfPXeiIe6W3NmamHu6phX2lrno1
trial,116,,2,,1400,649.0,45,,True,0.5,grey,1gfPXeiIe6W3NmamHu6phX2lrno1
trial,117,,1,,1400,650.5999999999767,45,,False,0.5,grey,1gfPXeiIe6W3NmamHu6phX2lrno1
trial,118,,1,,1500,2915.9000000000233,46,,False,0.5,grey,1gfPXeiIe6W3NmamHu6phX2lrno1
trial,119,,1,,1600,1299.6999999999534,47,,False,0.5,grey,1gfPXeiIe6W3NmamHu6phX2lrno1
trial,120,,1,,1550,1365.7999999999884,47,,True,0.5,grey,1gfPXeiIe6W3NmamHu6phX2lrno1
trial,121,,2,,1500,632.4000000000233,47,,True,0.5,grey,1gfPXeiIe6W3NmamHu6phX2lrno1
trial,122,,1,,1450,1233.2999999999884,47,,True,0.5,grey,1gfPXeiIe6W3NmamHu6phX2lrno1
trial,123,,2,,1400,699.9000000000233,47,,True,0.5,grey,1gfPXeiIe6W3NmamHu6phX2lrno1
trial,124,,2,,1350,583.5,47,,True,0.5,grey,1gfPXeiIe6W3NmamHu6phX2lrno1
trial,125,,2,,1450,533.1000000000349,48,,False,0.5,grey,1gfPXeiIe6W3NmamHu6phX2lrno1
trial,126,,1,,1450,1650.7999999999884,48,,False,0.5,grey,1gfPXeiIe6W3NmamHu6phX2lrno1
trial,127,,2,,1450,984.0,48,,False,0.5,grey,1gfPXeiIe6W3NmamHu6phX2lrno1
trial,128,,1,,1400,1965.7999999999884,48,,True,0.5,grey,1gfPXeiIe6W3NmamHu6phX2lrno1
trial,129,,2,,1500,1816.5999999999767,49,,False,0.5,grey,1gfPXeiIe6W3NmamHu6phX2lrno1
trial,130,,1,,1500,1599.2999999999884,49,,False,0.5,grey,1gfPXeiIe6W3NmamHu6phX2lrno1
trial,131,,1,,1450,4132.699999999953,49,,True,0.5,grey,1gfPXeiIe6W3NmamHu6phX2lrno1
trial,132,,2,,1550,567.6000000000349,50,,False,0.5,grey,1gfPXeiIe6W3NmamHu6phX2lrno1
trial,133,,1,,1650,483.5,51,,False,0.5,grey,1gfPXeiIe6W3NmamHu6phX2lrno1
trial,134,,1,,1750,1283.0999999999767,52,,False,0.5,grey,1gfPXeiIe6W3NmamHu6phX2lrno1
trial,135,,1,,1850,1015.6999999999534,53,,False,0.5,grey,1gfPXeiIe6W3NmamHu6phX2lrno1
trial,136,,1,,1950,1266.5999999999767,54,,False,0.5,grey,1gfPXeiIe6W3NmamHu6phX2lrno1
trial,137,,1,,2050,916.2000000000116,55,,False,0.5,grey,1gfPXeiIe6W3NmamHu6phX2lrno1
trial,138,,2,,2000,533.0999999999767,55,,True,0.5,grey,1gfPXeiIe6W3NmamHu6phX2lrno1
trial,139,,1,,2000,1216.0999999999767,55,,False,0.5,grey,1gfPXeiIe6W3NmamHu6phX2lrno1
trial,140,,1,,1950,349.29999999998836,55,,True,0.5,grey,1gfPXeiIe6W3NmamHu6phX2lrno1
trial,141,,2,,1900,750.3999999999651,55,,True,0.5,grey,1gfPXeiIe6W3NmamHu6phX2lrno1
trial,142,,1,,1850,634.2999999999884,55,,True,0.5,grey,1gfPXeiIe6W3NmamHu6phX2lrno1
trial,143,,2,,1950,515.9000000000233,56,,False,0.5,grey,1gfPXeiIe6W3NmamHu6phX2lrno1
trial,144,,1,,1950,1316.0,56,,False,0.5,grey,1gfPXeiIe6W3NmamHu6phX2lrno1
trial,145,,2,,1900,433.30000000004657,56,,True,0.5,grey,1gfPXeiIe6W3NmamHu6phX2lrno1
trial,146,,1,,2000,516.1999999999534,57,,False,0.5,grey,1gfPXeiIe6W3NmamHu6phX2lrno1
trial,147,,1,,1950,1450.2999999999884,57,,True,0.5,grey,1gfPXeiIe6W3NmamHu6phX2lrno1
trial,148,,1,,1900,249.89999999996508,57,,True,0.5,grey,1gfPXeiIe6W3NmamHu6phX2lrno1
trial,149,,2,,1900,750.0999999999767,57,,False,0.5,grey,1gfPXeiIe6W3NmamHu6phX2lrno1
trial,150,,1,,2000,116.60000000003492,58,,False,0.5,grey,1gfPXeiIe6W3NmamHu6phX2lrno1
trial,151,,1,,1950,1532.4000000000233,58,,True,0.5,grey,1gfPXeiIe6W3NmamHu6phX2lrno1
trial,152,,2,,2050,767.3999999999651,59,,False,0.5,grey,1gfPXeiIe6W3NmamHu6phX2lrno1
trial,153,,1,,2050,1665.7999999999884,59,,False,0.5,grey,1gfPXeiIe6W3NmamHu6phX2lrno1
trial,154,,1,,2150,12866.400000000023,60,,False,0.5,grey,1gfPXeiIe6W3NmamHu6phX2lrno1
trial,155,,1,,2250,12866.400000000023,61,,False,0.5,grey,1gfPXeiIe6W3NmamHu6phX2lrno1
trial,156,,1,,2350,10198.900000000023,62,,False,0.5,grey,1gfPXeiIe6W3NmamHu6phX2lrno1
trial,157,,2,,2350,3700.600000000035,62,,False,0.5,grey,1gfPXeiIe6W3NmamHu6phX2lrno1
trial,158,,2,,2300,2732.2999999999884,62,,True,0.5,grey,1gfPXeiIe6W3NmamHu6phX2lrno1
trial,159,,1,,2400,666.2000000000116,63,,False,0.5,grey,1gfPXeiIe6W3NmamHu6phX2lrno1
trial,160,,2,,2350,1466.7000000000116,63,,True,0.5,grey,1gfPXeiIe6W3NmamHu6phX2lrno1
trial,161,,1,,2450,633.4000000000233,64,,False,0.5,grey,1gfPXeiIe6W3NmamHu6phX2lrno1
trial,162,,2,,2400,1433.3000000000466,64,,True,0.5,grey,1gfPXeiIe6W3NmamHu6phX2lrno1
trial,163,,1,,2500,665.7000000000116,65,,False,0.5,grey,1gfPXeiIe6W3NmamHu6phX2lrno1
trial,164,,1,,2600,2033.4000000000233,66,,False,0.5,grey,1gfPXeiIe6W3NmamHu6phX2lrno1
trial,165,,2,,2550,1967.0,66,,True,0.5,grey,1gfPXeiIe6W3NmamHu6phX2lrno1
trial,166,,1,,2550,899.5999999999767,66,,False,0.5,grey,1gfPXeiIe6W3NmamHu6phX2lrno1
trial,167,,1,,2650,3067.0999999999767,67,,False,0.5,grey,1gfPXeiIe6W3NmamHu6phX2lrno1
trial,168,,2,,2600,2066.600000000093,67,,True,0.5,grey,1gfPXeiIe6W3NmamHu6phX2lrno1
trial,169,,2,,2700,666.1999999999534,68,,False,0.5,grey,1gfPXeiIe6W3NmamHu6phX2lrno1
trial,170,,1,,2700,5182.29999999993,68,,False,0.5,grey,1gfPXeiIe6W3NmamHu6phX2lrno1
trial,171,,2,,2650,1083.2999999999302,68,,True,0.5,grey,1gfPXeiIe6W3NmamHu6phX2lrno1
trial,172,,1,,2600,983.6999999999534,68,,True,0.5,grey,1gfPXeiIe6W3NmamHu6phX2lrno1
trial,173,,2,,2550,616.4000000000233,68,,True,0.5,grey,1gfPXeiIe6W3NmamHu6phX2lrno1
trial,174,,1,,2650,800.0,69,,False,0.5,grey,1gfPXeiIe6W3NmamHu6phX2lrno1
trial,175,,1,,2750,2717.3000000000466,70,,False,0.5,grey,1gfPXeiIe6W3NmamHu6phX2lrno1
trial,176,,2,,2700,1533.8999999999069,70,,True,0.5,grey,1gfPXeiIe6W3NmamHu6phX2lrno1
trial,177,,1,,2650,832.8999999999069,70,,True,0.5,grey,1gfPXeiIe6W3NmamHu6phX2lrno1
trial,178,,2,,2750,533.5999999999767,71,,False,0.5,grey,1gfPXeiIe6W3NmamHu6phX2lrno1
trial,179,,1,,2850,1482.5999999999767,72,,False,0.5,grey,1gfPXeiIe6W3NmamHu6phX2lrno1
trial,180,,1,,2850,3216.5999999999767,72,,False,0.5,grey,1gfPXeiIe6W3NmamHu6phX2lrno1
trial,1,,2,,0,450.09999999999854,0,,False,0.5,grey,6x9QSvZg7YOzOKFA2JhayPvBCR23
trial,2,,1,,-50,16.5,0,,True,0.5,grey,6x9QSvZg7YOzOKFA2JhayPvBCR23
trial,3,,2,,-100,550.0999999999985,0,,True,0.5,grey,6x9QSvZg7YOzOKFA2JhayPvBCR23
trial,4,,1,,-150,583.4000000000015,0,,True,0.5,grey,6x9QSvZg7YOzOKFA2JhayPvBCR23
trial,5,,2,,-150,499.8000000000029,0,,False,0.5,grey,6x9QSvZg7YOzOKFA2JhayPvBCR23
trial,6,,1,,-200,1199.5999999999985,0,,True,0.5,grey,6x9QSvZg7YOzOKFA2JhayPvBCR23
trial,7,,2,,-100,599.6999999999971,1,,False,0.5,grey,6x9QSvZg7YOzOKFA2JhayPvBCR23
trial,8,,2,,0,1566.5999999999985,2,,False,0.5,grey,6x9QSvZg7YOzOKFA2JhayPvBCR23
trial,9,,2,,-50,1466.5,2,,True,0.5,grey,6x9QSvZg7YOzOKFA2JhayPvBCR23
trial,10,,1,,-100,300.0,2,,True,0.5,grey,6x9QSvZg7YOzOKFA2JhayPvBCR23
trial,11,,2,,-150,399.90000000000146,2,,True,0.5,grey,6x9QSvZg7YOzOKFA2JhayPvBCR23
trial,12,,1,,-200,566.5,2,,True,0.5,grey,6x9QSvZg7YOzOKFA2JhayPvBCR23
trial,13,,2,,-250,366.79999999999563,2,,True,0.5,grey,6x9QSvZg7YOzOKFA2JhayPvBCR23
trial,14,,2,,-150,516.5999999999985,3,,False,0.5,grey,6x9QSvZg7YOzOKFA2JhayPvBCR23
trial,15,,1,,-200,1483.5,3,,True,0.5,grey,6x9QSvZg7YOzOKFA2JhayPvBCR23
trial,16,,2,,-100,300.0,4,,False,0.5,grey,6x9QSvZg7YOzOKFA2JhayPvBCR23
trial,17,,1,,-150,1416.5,4,,True,0.5,grey,6x9QSvZg7YOzOKFA2JhayPvBCR23
trial,18,,2,,-50,33.39999999999418,5,,False,0.5,grey,6x9QSvZg7YOzOKFA2JhayPvBCR23
trial,19,,2,,50,1466.699999999997,6,,False,0.5,grey,6x9QSvZg7YOzOKFA2JhayPvBCR23
trial,20,,2,,50,1332.9000000000087,6,,False,0.5,grey,6x9QSvZg7YOzOKFA2JhayPvBCR23
trial,21,,2,,0,66.40000000000873,6,,True,0.5,grey,6x9QSvZg7YOzOKFA2JhayPvBCR23
trial,22,,1,,100,433.29999999998836,7,,False,0.5,grey,6x9QSvZg7YOzOKFA2JhayPvBCR23
trial,23,,2,,50,1349.7999999999884,7,,True,0.5,grey,6x9QSvZg7YOzOKFA2JhayPvBCR23
trial,24,,1,,150,583.3999999999942,8,,False,0.5,grey,6x9QSvZg7YOzOKFA2JhayPvBCR23
trial,25,,2,,250,116.29999999998836,9,,False,0.5,grey,6x9QSvZg7YOzOKFA2JhayPvBCR23
trial,26,,1,,350,1299.800000000003,10,,False,0.5,grey,6x9QSvZg7YOzOKFA2JhayPvBCR23
trial,27,,2,,300,1316.5,10,,True,0.5,grey,6x9QSvZg7YOzOKFA2JhayPvBCR23
trial,28,,1,,250,700.0,10,,True,0.5,grey,6x9QSvZg7YOzOKFA2JhayPvBCR23
trial,29,,2,,350,415.90000000000873,11,,False,0.5,grey,6x9QSvZg7YOzOKFA2JhayPvBCR23
trial,30,,1,,300,1483.0999999999913,11,,True,0.5,grey,6x9QSvZg7YOzOKFA2JhayPvBCR23
trial,31,,2,,250,516.5,11,,True,0.5,grey,6x9QSvZg7YOzOKFA2JhayPvBCR23
trial,32,,1,,200,500.0,11,,True,0.5,grey,6x9QSvZg7YOzOKFA2JhayPvBCR23
trial,33,,2,,200,466.5,11,,False,0.5,grey,6x9QSvZg7YOzOKFA2JhayPvBCR23
trial,34,,1,,150,149.59999999999127,11,,True,0.5,grey,6x9QSvZg7YOzOKFA2JhayPvBCR23
trial,35,,2,,150,300.0,11,,False,0.5,grey,6x9QSvZg7YOzOKFA2JhayPvBCR23
trial,36,,1,,100,1349.800000000003,11,,True,0.5,grey,6x9QSvZg7YOzOKFA2JhayPvBCR23
trial,37,,2,,200,416.5,12,,False,0.5,grey,6x9QSvZg7YOzOKFA2JhayPvBCR23
trial,38,,1,,150,1549.699999999997,12,,True,0.5,grey,6x9QSvZg7YOzOKFA2JhayPvBCR23
trial,39,,2,,250,399.70000000001164,13,,False,0.5,grey,6x9QSvZg7YOzOKFA2JhayPvBCR23
trial,40,,1,,350,1382.800000000003,14,,False,0.5,grey,6x9QSvZg7YOzOKFA2JhayPvBCR23
trial,41,,2,,450,1216.300000000003,15,,False,0.5,grey,6x9QSvZg7YOzOKFA2JhayPvBCR23
trial,42,,1,,400,1283.0,15,,True,0.5,grey,6x9QSvZg7YOzOKFA2JhayPvBCR23
trial,43,,2,,350,583.1000000000058,15,,True,0.5,grey,6x9QSvZg7YOzOKFA2JhayPvBCR23
trial,44,,2,,300,333.29999999998836,15,,True,0.5,grey,6x9QSvZg7YOzOKFA2JhayPvBCR23
trial,45,,1,,250,299.5,15,,True,0.5,grey,6x9QSvZg7YOzOKFA2JhayPvBCR23
trial,46,,1,,200,366.3999999999942,15,,True,0.5,grey,6x9QSvZg7YOzOKFA2JhayPvBCR23
trial,47,,2,,300,282.79999999998836,16,,False,0.5,grey,6x9QSvZg7YOzOKFA2JhayPvBCR23
trial,48,,1,,250,1549.6000000000058,16,,True,0.5,grey,6x9QSvZg7YOzOKFA2JhayPvBCR23
trial,49,,2,,350,399.70000000001164,17,,False,0.5,grey,6x9QSvZg7YOzOKFA2JhayPvBCR23
trial,50,,1,,300,1433.2999999999884,17,,True,0.5,grey,6x9QSvZg7YOzOKFA2JhayPvBCR23
trial,51,,2,,400,416.5999999999767,18,,False,0.5,grey,6x9QSvZg7YOzOKFA2JhayPvBCR23
trial,52,,1,,350,1332.7000000000116,18,,True,0.5,grey,6x9QSvZg7YOzOKFA2JhayPvBCR23
trial,53,,2,,450,399.8999999999942,19,,False,0.5,grey,6x9QSvZg7YOzOKFA2JhayPvBCR23
trial,54,,1,,550,1316.3999999999942,20,,False,0.5,grey,6x9QSvZg7YOzOKFA2JhayPvBCR23
trial,55,,2,,650,850.1000000000058,21,,False,0.5,grey,6x9QSvZg7YOzOKFA2JhayPvBCR23
trial,56,,1,,600,1066.6000000000058,21,,True,0.5,grey,6x9QSvZg7YOzOKFA2JhayPvBCR23
trial,57,,2,,700,366.5,22,,False,0.5,grey,6x9QSvZg7YOzOKFA2JhayPvBCR23
trial,58,,1,,650,783.2999999999884,22,,True,0.5,grey,6x9QSvZg7YOzOKFA2JhayPvBCR23
trial,59,,2,,650,366.5,22,,False,0.5,grey,6x9QSvZg7YOzOKFA2JhayPvBCR23
trial,60,,1,,600,166.80000000001746,22,,True,0.5,grey,6x9QSvZg7YOzOKFA2JhayPvBCR23
trial,61,,2,,700,433.3999999999942,23,,False,0.5,grey,6x9QSvZg7YOzOKFA2JhayPvBCR23
trial,62,,1,,650,1283.0,23,,True,0.5,grey,6x9QSvZg7YOzOKFA2JhayPvBCR23
trial,63,,2,,750,449.70000000001164,24,,False,0.5,grey,6x9QSvZg7YOzOKFA2JhayPvBCR23
trial,64,,1,,700,1216.5,24,,True,0.5,grey,6x9QSvZg7YOzOKFA2JhayPvBCR23
trial,65,,2,,650,499.80000000001746,24,,True,0.5,grey,6x9QSvZg7YOzOKFA2JhayPvBCR23
trial,66,,2,,750,366.70000000001164,25,,False,0.5,grey,6x9QSvZg7YOzOKFA2JhayPvBCR23
trial,67,,1,,700,1383.4000000000233,25,,True,0.5,grey,6x9QSvZg7YOzOKFA2JhayPvBCR23
trial,68,,2,,650,366.79999999998836,25,,True,0.5,grey,6x9QSvZg7YOzOKFA2JhayPvBCR23
trial,69,,1,,750,349.9000000000233,26,,False,0.5,grey,6x9QSvZg7YOzOKFA2JhayPvBCR23
trial,70,,2,,850,1266.1999999999825,27,,False,0.5,grey,6x9QSvZg7YOzOKFA2JhayPvBCR23
trial,71,,1,,950,1366.3999999999942,28,,False,0.5,grey,6x9QSvZg7YOzOKFA2JhayPvBCR23
trial,72,,2,,1050,1349.8000000000175,29,,False,0.5,grey,6x9QSvZg7YOzOKFA2JhayPvBCR23
trial,73,,1,,1050,1349.6000000000058,29,,False,0.5,grey,6x9QSvZg7YOzOKFA2JhayPvBCR23
trial,74,,2,,1000,166.79999999998836,29,,True,0.5,grey,6x9QSvZg7YOzOKFA2JhayPvBCR23
trial,75,,1,,1100,466.29999999998836,30,,False,0.5,grey,6x9QSvZg7YOzOKFA2JhayPvBCR23
trial,76,,2,,1200,783.2000000000116,31,,False,0.5,grey,6x9QSvZg7YOzOKFA2JhayPvBCR23
trial,77,,1,,1150,966.6000000000058,31,,True,0.5,grey,6x9QSvZg7YOzOKFA2JhayPvBCR23
trial,78,,2,,1100,383.0999999999767,31,,True,0.5,grey,6x9QSvZg7YOzOKFA2JhayPvBCR23
trial,79,,2,,1200,333.29999999998836,32,,False,0.5,grey,6x9QSvZg7YOzOKFA2JhayPvBCR23
trial,80,,2,,1300,1116.1000000000058,33,,False,0.5,grey,6x9QSvZg7YOzOKFA2JhayPvBCR23
trial,81,,1,,1400,1116.4000000000233,34,,False,0.5,grey,6x9QSvZg7YOzOKFA2JhayPvBCR23
trial,82,,2,,1400,1283.0,34,,False,0.5,grey,6x9QSvZg7YOzOKFA2JhayPvBCR23
trial,83,,1,,1350,250.0,34,,True,0.5,grey,6x9QSvZg7YOzOKFA2JhayPvBCR23
trial,84,,2,,1450,566.5,35,,False,0.5,grey,6x9QSvZg7YOzOKFA2JhayPvBCR23
trial,85,,1,,1550,1349.7999999999884,36,,False,0.5,grey,6x9QSvZg7YOzOKFA2JhayPvBCR23
trial,86,,2,,1650,982.8999999999942,37,,False,0.5,grey,6x9QSvZg7YOzOKFA2JhayPvBCR23
trial,87,,1,,1600,1233.0999999999767,37,,True,0.5,grey,6x9QSvZg7YOzOKFA2JhayPvBCR23
trial,88,,2,,1700,366.9000000000233,38,,False,0.5,grey,6x9QSvZg7YOzOKFA2JhayPvBCR23
trial,89,,1,,1800,1483.0,39,,False,0.5,grey,6x9QSvZg7YOzOKFA2JhayPvBCR23
trial,90,,2,,1750,1349.5,39,,True,0.5,grey,6x9QSvZg7YOzOKFA2JhayPvBCR23
trial,91,,1,,1700,583.0,39,,True,0.5,grey,6x9QSvZg7YOzOKFA2JhayPvBCR23
trial,92,,2,,1650,599.8999999999942,39,,True,0.5,grey,6x9QSvZg7YOzOKFA2JhayPvBCR23
trial,93,,1,,1600,516.8999999999942,39,,True,0.5,grey,6x9QSvZg7YOzOKFA2JhayPvBCR23
trial,94,,2,,1550,466.29999999998836,39,,True,0.5,grey,6x9QSvZg7YOzOKFA2JhayPvBCR23
trial,95,,1,,1650,516.3000000000175,40,,False,0.5,grey,6x9QSvZg7YOzOKFA2JhayPvBCR23
trial,96,,2,,1750,983.2000000000116,41,,False,0.5,grey,6x9QSvZg7YOzOKFA2JhayPvBCR23
trial,97,,1,,1850,1249.6999999999825,42,,False,0.5,grey,6x9QSvZg7YOzOKFA2JhayPvBCR23
trial,98,,2,,1800,1249.6999999999825,42,,True,0.5,grey,6x9QSvZg7YOzOKFA2JhayPvBCR23
trial,99,,1,,1900,733.1000000000058,43,,False,0.5,grey,6x9QSvZg7YOzOKFA2JhayPvBCR23
trial,100,,2,,1850,1182.8999999999942,43,,True,0.5,grey,6x9QSvZg7YOzOKFA2JhayPvBCR23
trial,101,,1,,1950,366.6000000000058,44,,False,0.5,grey,6x9QSvZg7YOzOKFA2JhayPvBCR23
trial,102,,2,,1900,1383.0,44,,True,0.5,grey,6x9QSvZg7YOzOKFA2JhayPvBCR23
trial,103,,1,,1900,383.29999999998836,44,,False,0.5,grey,6x9QSvZg7YOzOKFA2JhayPvBCR23
trial,104,,2,,2000,83.29999999998836,45,,False,0.5,grey,6x9QSvZg7YOzOKFA2JhayPvBCR23
trial,105,,1,,2100,1299.7000000000116,46,,False,0.5,grey,6x9QSvZg7YOzOKFA2JhayPvBCR23
trial,106,,2,,2050,1232.9000000000233,46,,True,0.5,grey,6x9QSvZg7YOzOKFA2JhayPvBCR23
trial,107,,1,,2150,483.0,47,,False,0.5,grey,6x9QSvZg7YOzOKFA2JhayPvBCR23
trial,108,,2,,2100,999.9000000000233,47,,True,0.5,grey,6x9QSvZg7YOzOKFA2JhayPvBCR23
trial,109,,1,,2200,433.5,48,,False,0.5,grey,6x9QSvZg7YOzOKFA2JhayPvBCR23
trial,110,,2,,2150,866.2000000000116,48,,True,0.5,grey,6x9QSvZg7YOzOKFA2JhayPvBCR23
trial,111,,1,,2100,416.5999999999767,48,,True,0.5,grey,6x9QSvZg7YOzOKFA2JhayPvBCR23
trial,112,,2,,2200,533.0999999999767,49,,False,0.5,grey,6x9QSvZg7YOzOKFA2JhayPvBCR23
trial,113,,1,,2300,1466.600000000035,50,,False,0.5,grey,6x9QSvZg7YOzOKFA2JhayPvBCR23
trial,114,,2,,2400,966.5999999999767,51,,False,0.5,grey,6x9QSvZg7YOzOKFA2JhayPvBCR23
trial,115,,1,,2400,4142.299999991024,51,,False,0.5,grey,6x9QSvZg7YOzOKFA2JhayPvBCR23
trial,116,,2,,2500,99.80000000004657,52,,False,0.5,grey,6x9QSvZg7YOzOKFA2JhayPvBCR23
trial,117,,1,,2450,1633.2000000000116,52,,True,0.5,grey,6x9QSvZg7YOzOKFA2JhayPvBCR23
trial,118,,2,,2550,516.5,53,,False,0.5,grey,6x9QSvZg7YOzOKFA2JhayPvBCR23
trial,119,,1,,2650,1099.7999999999884,54,,False,0.5,grey,6x9QSvZg7YOzOKFA2JhayPvBCR23
trial,120,,2,,2750,1299.9000000000233,55,,False,0.5,grey,6x9QSvZg7YOzOKFA2JhayPvBCR23
trial,121,,1,,2700,899.5999999999767,55,,True,0.5,grey,6x9QSvZg7YOzOKFA2JhayPvBCR23
trial,122,,2,,2800,533.0,56,,False,0.5,grey,6x9QSvZg7YOzOKFA2JhayPvBCR23
trial,123,,1,,2750,1083.2000000000116,56,,True,0.5,grey,6x9QSvZg7YOzOKFA2JhayPvBCR23
trial,124,,2,,2700,399.8999999999651,56,,True,0.5,grey,6x9QSvZg7YOzOKFA2JhayPvBCR23
trial,125,,1,,2800,433.4000000000233,57,,False,0.5,grey,6x9QSvZg7YOzOKFA2JhayPvBCR23
trial,126,,2,,2900,1382.9000000000233,58,,False,0.5,grey,6x9QSvZg7YOzOKFA2JhayPvBCR23
trial,127,,2,,2900,1583.0,58,,False,0.5,grey,6x9QSvZg7YOzOKFA2JhayPvBCR23
trial,128,,2,,2850,1733.100000000035,58,,True,0.5,grey,6x9QSvZg7YOzOKFA2JhayPvBCR23
trial,129,,1,,2800,383.1000000000349,58,,True,0.5,grey,6x9QSvZg7YOzOKFA2JhayPvBCR23
trial,130,,1,,2750,333.29999999998836,58,,True,0.5,grey,6x9QSvZg7YOzOKFA2JhayPvBCR23
trial,131,,1,,2850,383.3999999999651,59,,False,0.5,grey,6x9QSvZg7YOzOKFA2JhayPvBCR23
trial,132,,2,,2800,1399.7999999999884,59,,True,0.5,grey,6x9QSvZg7YOzOKFA2JhayPvBCR23
trial,133,,2,,2750,3699.2999999999884,59,,True,0.5,grey,6x9QSvZg7YOzOKFA2JhayPvBCR23
trial,134,,1,,2750,616.2999999999884,59,,False,0.5,grey,6x9QSvZg7YOzOKFA2JhayPvBCR23
trial,135,,2,,2700,216.59999999997672,59,,True,0.5,grey,6x9QSvZg7YOzOKFA2JhayPvBCR23
trial,136,,1,,2700,816.6000000000349,59,,False,0.5,grey,6x9QSvZg7YOzOKFA2JhayPvBCR23
trial,137,,2,,2800,50.09999999997672,60,,False,0.5,grey,6x9QSvZg7YOzOKFA2JhayPvBCR23
trial,138,,1,,2800,2332.899999999965,60,,False,0.5,grey,6x9QSvZg7YOzOKFA2JhayPvBCR23
trial,139,,2,,2750,216.70000000001164,60,,True,0.5,grey,6x9QSvZg7YOzOKFA2JhayPvBCR23
trial,140,,2,,2700,2883.2000000000116,60,,True,0.5,grey,6x9QSvZg7YOzOKFA2JhayPvBCR23
trial,141,,2,,2700,383.4000000000233,60,,False,0.5,grey,6x9QSvZg7YOzOKFA2JhayPvBCR23
trial,142,,1,,2650,416.5,60,,True,0.5,grey,6x9QSvZg7YOzOKFA2JhayPvBCR23
trial,143,,1,,2600,533.2000000000116,60,,True,0.5,grey,6x9QSvZg7YOzOKFA2JhayPvBCR23
trial,144,,2,,2550,7522.500000008964,60,,True,0.5,grey,6x9QSvZg7YOzOKFA2JhayPvBCR23
trial,145,,2,,2500,4432.700000000012,60,,True,0.5,grey,6x9QSvZg7YOzOKFA2JhayPvBCR23
trial,146,,1,,2450,433.29999999998836,60,,True,0.5,grey,6x9QSvZg7YOzOKFA2JhayPvBCR23
trial,147,,2,,2400,449.9000000000233,60,,True,0.5,grey,6x9QSvZg7YOzOKFA2JhayPvBCR23
trial,148,,1,,2500,533.5,61,,False,0.5,grey,6x9QSvZg7YOzOKFA2JhayPvBCR23
trial,149,,2,,2450,2282.9000000000233,61,,True,0.5,grey,6x9QSvZg7YOzOKFA2JhayPvBCR23
trial,150,,1,,2400,633.2000000000116,61,,True,0.5,grey,6x9QSvZg7YOzOKFA2JhayPvBCR23
trial,151,,2,,2350,99.79999999998836,61,,True,0.5,grey,6x9QSvZg7YOzOKFA2JhayPvBCR23
trial,152,,2,,2350,433.29999999998836,61,,False,0.5,grey,6x9QSvZg7YOzOKFA2JhayPvBCR23
trial,153,,1,,2300,183.39999999996508,61,,True,0.5,grey,6x9QSvZg7YOzOKFA2JhayPvBCR23
trial,154,,1,,2250,1433.2000000000116,61,,True,0.5,grey,6x9QSvZg7YOzOKFA2JhayPvBCR23
trial,155,,2,,2350,633.0999999999767,62,,False,0.5,grey,6x9QSvZg7YOzOKFA2JhayPvBCR23
trial,156,,2,,2300,1516.4000000000233,62,,True,0.5,grey,6x9QSvZg7YOzOKFA2JhayPvBCR23
trial,157,,1,,2300,316.6000000000349,62,,False,0.5,grey,6x9QSvZg7YOzOKFA2JhayPvBCR23
trial,158,,2,,2400,1466.2999999999884,63,,False,0.5,grey,6x9QSvZg7YOzOKFA2JhayPvBCR23
trial,159,,2,,2350,1016.5999999999767,63,,True,0.5,grey,6x9QSvZg7YOzOKFA2JhayPvBCR23
trial,160,,1,,2300,349.5999999999767,63,,True,0.5,grey,6x9QSvZg7YOzOKFA2JhayPvBCR23
trial,161,,1,,2250,8631.700000000012,63,,True,0.5,grey,6x9QSvZg7YOzOKFA2JhayPvBCR23
trial,162,,2,,2350,333.3999999999651,64,,False,0.5,grey,6x9QSvZg7YOzOKFA2JhayPvBCR23
trial,163,,2,,2350,1499.5999999999767,64,,False,0.5,grey,6x9QSvZg7YOzOKFA2JhayPvBCR23
trial,164,,1,,2450,600.0,65,,False,0.5,grey,6x9QSvZg7YOzOKFA2JhayPvBCR23
trial,165,,2,,2550,1383.2000000000116,66,,False,0.5,grey,6x9QSvZg7YOzOKFA2JhayPvBCR23
trial,166,,1,,2500,2316.0,66,,True,0.5,grey,6x9QSvZg7YOzOKFA2JhayPvBCR23
trial,167,,2,,2450,449.79999999998836,66,,True,0.5,grey,6x9QSvZg7YOzOKFA2JhayPvBCR23
trial,168,,1,,2400,616.6000000000349,66,,True,0.5,grey,6x9QSvZg7YOzOKFA2JhayPvBCR23
trial,169,,1,,2500,266.70000000001164,67,,False,0.5,grey,6x9QSvZg7YOzOKFA2JhayPvBCR23
trial,170,,2,,2600,2749.5,68,,False,0.5,grey,6x9QSvZg7YOzOKFA2JhayPvBCR23
trial,171,,2,,2550,1949.7000000000116,68,,True,0.5,grey,6x9QSvZg7YOzOKFA2JhayPvBCR23
trial,172,,1,,2650,666.7999999999884,69,,False,0.5,grey,6x9QSvZg7YOzOKFA2JhayPvBCR23
trial,173,,1,,2750,1416.2999999999884,70,,False,0.5,grey,6x9QSvZg7YOzOKFA2JhayPvBCR23
trial,174,,2,,2850,749.8999999999651,71,,False,0.5,grey,6x9QSvZg7YOzOKFA2JhayPvBCR23
trial,175,,2,,2950,1599.5999999999767,72,,False,0.5,grey,6x9QSvZg7YOzOKFA2JhayPvBCR23
trial,176,,2,,2900,1682.899999999965,72,,True,0.5,grey,6x9QSvZg7YOzOKFA2JhayPvBCR23
trial,177,,1,,2850,716.5,72,,True,0.5,grey,6x9QSvZg7YOzOKFA2JhayPvBCR23
trial,178,,2,,2800,666.9000000000233,72,,True,0.5,grey,6x9QSvZg7YOzOKFA2JhayPvBCR23
trial,179,,1,,2900,766.7000000000116,73,,False,0.5,grey,6x9QSvZg7YOzOKFA2JhayPvBCR23
trial,180,,1,,2900,30628.399999999965,73,,False,0.5,grey,6x9QSvZg7YOzOKFA2JhayPvBCR23
trial,1,,2,,100,350.0,1,,False,0.5,grey,868QjBWzCzdrbYuwCAVTLagW7ns2
trial,2,,1,,50,1650.1000000000022,1,,True,0.5,grey,868QjBWzCzdrbYuwCAVTLagW7ns2
trial,3,,2,,0,566.6000000000022,1,,True,0.5,grey,868QjBWzCzdrbYuwCAVTLagW7ns2
trial,4,,1,,-50,441.6999999999971,1,,True,0.5,grey,868QjBWzCzdrbYuwCAVTLagW7ns2
trial,5,,1,,-100,933.4000000000015,1,,True,0.5,grey,868QjBWzCzdrbYuwCAVTLagW7ns2
trial,6,,2,,0,808.5,2,,False,0.5,grey,868QjBWzCzdrbYuwCAVTLagW7ns2
trial,7,,2,,100,1425.0,3,,False,0.5,grey,868QjBWzCzdrbYuwCAVTLagW7ns2
trial,8,,1,,50,1525.2000000000044,3,,True,0.5,grey,868QjBWzCzdrbYuwCAVTLagW7ns2
trial,9,,2,,50,841.6000000000058,3,,False,0.5,grey,868QjBWzCzdrbYuwCAVTLagW7ns2
trial,10,,2,,150,300.0,4,,False,0.5,grey,868QjBWzCzdrbYuwCAVTLagW7ns2
trial,11,,2,,250,1350.0,5,,False,0.5,grey,868QjBWzCzdrbYuwCAVTLagW7ns2
trial,12,,1,,350,1291.699999999997,6,,False,0.5,grey,868QjBWzCzdrbYuwCAVTLagW7ns2
trial,13,,2,,300,1175.0999999999985,6,,True,0.5,grey,868QjBWzCzdrbYuwCAVTLagW7ns2
trial,14,,1,,250,408.3000000000029,6,,True,0.5,grey,868QjBWzCzdrbYuwCAVTLagW7ns2
trial,15,,2,,250,450.0,6,,False,0.5,grey,868QjBWzCzdrbYuwCAVTLagW7ns2
trial,16,,2,,200,24.799999999995634,6,,True,0.5,grey,868QjBWzCzdrbYuwCAVTLagW7ns2
trial,17,,1,,150,433.3000000000029,6,,True,0.5,grey,868QjBWzCzdrbYuwCAVTLagW7ns2
trial,18,,2,,250,366.6999999999971,7,,False,0.5,grey,868QjBWzCzdrbYuwCAVTLagW7ns2
trial,19,,1,,350,1291.6000000000058,8,,False,0.5,grey,868QjBWzCzdrbYuwCAVTLagW7ns2
trial,20,,1,,300,1275.0999999999913,8,,True,0.5,grey,868QjBWzCzdrbYuwCAVTLagW7ns2
trial,21,,2,,250,366.6999999999971,8,,True,0.5,grey,868QjBWzCzdrbYuwCAVTLagW7ns2
trial,22,,1,,350,291.5,9,,False,0.5,grey,868QjBWzCzdrbYuwCAVTLagW7ns2
trial,23,,2,,300,1558.5,9,,True,0.5,grey,868QjBWzCzdrbYuwCAVTLagW7ns2
trial,24,,2,,250,750.0,9,,True,0.5,grey,868QjBWzCzdrbYuwCAVTLagW7ns2
trial,25,,1,,350,424.90000000000873,10,,False,0.5,grey,868QjBWzCzdrbYuwCAVTLagW7ns2
trial,26,,2,,350,1350.0,10,,False,0.5,grey,868QjBWzCzdrbYuwCAVTLagW7ns2
trial,27,,1,,300,550.0,10,,True,0.5,grey,868QjBWzCzdrbYuwCAVTLagW7ns2
trial,28,,2,,250,458.3999999999942,10,,True,0.5,grey,868QjBWzCzdrbYuwCAVTLagW7ns2
trial,29,,1,,350,316.6000000000058,11,,False,0.5,grey,868QjBWzCzdrbYuwCAVTLagW7ns2
trial,30,,2,,450,1008.3999999999942,12,,False,0.5,grey,868QjBWzCzdrbYuwCAVTLagW7ns2
trial,31,,1,,400,1241.800000000003,12,,True,0.5,grey,868QjBWzCzdrbYuwCAVTLagW7ns2
trial,32,,2,,350,441.8000000000029,12,,True,0.5,grey,868QjBWzCzdrbYuwCAVTLagW7ns2
trial,33,,1,,450,383.3000000000029,13,,False,0.5,grey,868QjBWzCzdrbYuwCAVTLagW7ns2
trial,34,,1,,550,1291.7000000000116,14,,False,0.5,grey,868QjBWzCzdrbYuwCAVTLagW7ns2
trial,35,,2,,500,1516.699999999997,14,,True,0.5,grey,868QjBWzCzdrbYuwCAVTLagW7ns2
trial,36,,1,,450,458.40000000000873,14,,True,0.5,grey,868QjBWzCzdrbYuwCAVTLagW7ns2
trial,37,,2,,550,391.5,15,,False,0.5,grey,868QjBWzCzdrbYuwCAVTLagW7ns2
trial,38,,1,,650,675.0,16,,False,0.5,grey,868QjBWzCzdrbYuwCAVTLagW7ns2
trial,39,,2,,750,1616.800000000003,17,,False,0.5,grey,868QjBWzCzdrbYuwCAVTLagW7ns2
trial,40,,2,,700,2125.100000000006,17,,True,0.5,grey,868QjBWzCzdrbYuwCAVTLagW7ns2
trial,41,,1,,650,425.0,17,,True,0.5,grey,868QjBWzCzdrbYuwCAVTLagW7ns2
trial,42,,1,,600,683.4000000000087,17,,True,0.5,grey,868QjBWzCzdrbYuwCAVTLagW7ns2
trial,43,,2,,550,491.8000000000029,17,,True,0.5,grey,868QjBWzCzdrbYuwCAVTLagW7ns2
trial,44,,1,,500,308.1999999999971,17,,True,0.5,grey,868QjBWzCzdrbYuwCAVTLagW7ns2
trial,45,,1,,450,841.7000000000116,17,,True,0.5,grey,868QjBWzCzdrbYuwCAVTLagW7ns2
trial,46,,2,,550,508.3000000000029,18,,False,0.5,grey,868QjBWzCzdrbYuwCAVTLagW7ns2
trial,47,,1,,650,1208.3999999999942,19,,False,0.5,grey,868QjBWzCzdrbYuwCAVTLagW7ns2
trial,48,,2,,750,700.1000000000058,20,,False,0.5,grey,868QjBWzCzdrbYuwCAVTLagW7ns2
trial,49,,1,,850,850.0,21,,False,0.5,grey,868QjBWzCzdrbYuwCAVTLagW7ns2
trial,50,,2,,800,1116.6999999999825,21,,True,0.5,grey,868QjBWzCzdrbYuwCAVTLagW7ns2
trial,51,,1,,750,333.3999999999942,21,,True,0.5,grey,868QjBWzCzdrbYuwCAVTLagW7ns2
trial,52,,2,,850,358.20000000001164,22,,False,0.5,grey,868QjBWzCzdrbYuwCAVTLagW7ns2
trial,53,,1,,800,866.7999999999884,22,,True,0.5,grey,868QjBWzCzdrbYuwCAVTLagW7ns2
trial,54,,2,,900,391.70000000001164,23,,False,0.5,grey,868QjBWzCzdrbYuwCAVTLagW7ns2
trial,55,,1,,1000,808.2999999999884,24,,False,0.5,grey,868QjBWzCzdrbYuwCAVTLagW7ns2
trial,56,,2,,1100,1425.0,25,,False,0.5,grey,868QjBWzCzdrbYuwCAVTLagW7ns2
trial,57,,1,,1200,758.5,26,,False,0.5,grey,868QjBWzCzdrbYuwCAVTLagW7ns2
trial,58,,2,,1300,541.7000000000116,27,,False,0.5,grey,868QjBWzCzdrbYuwCAVTLagW7ns2
trial,59,,1,,1250,541.8999999999942,27,,True,0.5,grey,868QjBWzCzdrbYuwCAVTLagW7ns2
trial,60,,2,,1350,333.3999999999942,28,,False,0.5,grey,868QjBWzCzdrbYuwCAVTLagW7ns2
trial,61,,1,,1300,650.0,28,,True,0.5,grey,868QjBWzCzdrbYuwCAVTLagW7ns2
trial,62,,2,,1250,358.20000000001164,28,,True,0.5,grey,868QjBWzCzdrbYuwCAVTLagW7ns2
trial,63,,1,,1200,341.70000000001164,28,,True,0.5,grey,868QjBWzCzdrbYuwCAVTLagW7ns2
trial,64,,2,,1150,375.1000000000058,28,,True,0.5,grey,868QjBWzCzdrbYuwCAVTLagW7ns2
trial,65,,1,,1250,325.0,29,,False,0.5,grey,868QjBWzCzdrbYuwCAVTLagW7ns2
trial,66,,2,,1200,683.2999999999884,29,,True,0.5,grey,868QjBWzCzdrbYuwCAVTLagW7ns2
trial,67,,1,,1300,391.70000000001164,30,,False,0.5,grey,868QjBWzCzdrbYuwCAVTLagW7ns2
trial,68,,2,,1250,708.4000000000233,30,,True,0.5,grey,868QjBWzCzdrbYuwCAVTLagW7ns2
trial,69,,1,,1350,341.70000000001164,31,,False,0.5,grey,868QjBWzCzdrbYuwCAVTLagW7ns2
trial,70,,2,,1450,791.7000000000116,32,,False,0.5,grey,868QjBWzCzdrbYuwCAVTLagW7ns2
trial,71,,1,,1550,508.6000000000058,33,,False,0.5,grey,868QjBWzCzdrbYuwCAVTLagW7ns2
trial,72,,2,,1500,608.2999999999884,33,,True,0.5,grey,868QjBWzCzdrbYuwCAVTLagW7ns2
trial,73,,1,,1600,299.9000000000233,34,,False,0.5,grey,868QjBWzCzdrbYuwCAVTLagW7ns2
trial,74,,2,,1550,558.3999999999942,34,,True,0.5,grey,868QjBWzCzdrbYuwCAVTLagW7ns2
trial,75,,1,,1650,325.0,35,,False,0.5,grey,868QjBWzCzdrbYuwCAVTLagW7ns2
trial,76,,2,,1600,491.70000000001164,35,,True,0.5,grey,868QjBWzCzdrbYuwCAVTLagW7ns2
trial,77,,1,,1700,316.70000000001164,36,,False,0.5,grey,868QjBWzCzdrbYuwCAVTLagW7ns2
trial,78,,2,,1650,649.8999999999942,36,,True,0.5,grey,868QjBWzCzdrbYuwCAVTLagW7ns2
trial,79,,1,,1750,325.0,37,,False,0.5,grey,868QjBWzCzdrbYuwCAVTLagW7ns2
trial,80,,2,,1850,950.0,38,,False,0.5,grey,868QjBWzCzdrbYuwCAVTLagW7ns2
trial,81,,1,,1800,1616.6000000000058,38,,True,0.5,grey,868QjBWzCzdrbYuwCAVTLagW7ns2
trial,82,,2,,1900,324.8999999999942,39,,False,0.5,grey,868QjBWzCzdrbYuwCAVTLagW7ns2
trial,83,,1,,2000,416.69999999998254,40,,False,0.5,grey,868QjBWzCzdrbYuwCAVTLagW7ns2
trial,84,,2,,2100,466.6000000000058,41,,False,0.5,grey,868QjBWzCzdrbYuwCAVTLagW7ns2
trial,85,,1,,2050,458.5,41,,True,0.5,grey,868QjBWzCzdrbYuwCAVTLagW7ns2
trial,86,,2,,2150,349.8999999999942,42,,False,0.5,grey,868QjBWzCzdrbYuwCAVTLagW7ns2
trial,87,,1,,2100,458.30000000001746,42,,True,0.5,grey,868QjBWzCzdrbYuwCAVTLagW7ns2
trial,88,,2,,2050,408.3999999999942,42,,True,0.5,grey,868QjBWzCzdrbYuwCAVTLagW7ns2
trial,89,,1,,2150,324.9000000000233,43,,False,0.5,grey,868QjBWzCzdrbYuwCAVTLagW7ns2
trial,90,,2,,2250,525.1000000000058,44,,False,0.5,grey,868QjBWzCzdrbYuwCAVTLagW7ns2
trial,91,,1,,2350,616.6999999999825,45,,False,0.5,grey,868QjBWzCzdrbYuwCAVTLagW7ns2
trial,92,,2,,2300,683.3000000000175,45,,True,0.5,grey,868QjBWzCzdrbYuwCAVTLagW7ns2
trial,93,,1,,2400,300.0,46,,False,0.5,grey,868QjBWzCzdrbYuwCAVTLagW7ns2
trial,94,,2,,2350,425.1000000000058,46,,True,0.5,grey,868QjBWzCzdrbYuwCAVTLagW7ns2
trial,95,,1,,2450,300.0,47,,False,0.5,grey,868QjBWzCzdrbYuwCAVTLagW7ns2
trial,96,,2,,2400,450.0,47,,True,0.5,grey,868QjBWzCzdrbYuwCAVTLagW7ns2
trial,97,,1,,2500,325.19999999998254,48,,False,0.5,grey,868QjBWzCzdrbYuwCAVTLagW7ns2
trial,98,,2,,2450,541.6999999999825,48,,True,0.5,grey,868QjBWzCzdrbYuwCAVTLagW7ns2
trial,99,,1,,2550,275.0,49,,False,0.5,grey,868QjBWzCzdrbYuwCAVTLagW7ns2
trial,100,,2,,2650,533.2999999999884,50,,False,0.5,grey,868QjBWzCzdrbYuwCAVTLagW7ns2
trial,101,,1,,2750,583.3999999999942,51,,False,0.5,grey,868QjBWzCzdrbYuwCAVTLagW7ns2
trial,102,,2,,2700,433.30000000001746,51,,True,0.5,grey,868QjBWzCzdrbYuwCAVTLagW7ns2
trial,103,,1,,2800,358.3999999999942,52,,False,0.5,grey,868QjBWzCzdrbYuwCAVTLagW7ns2
trial,104,,2,,2900,675.0,53,,False,0.5,grey,868QjBWzCzdrbYuwCAVTLagW7ns2
trial,105,,1,,2900,433.29999999998836,53,,False,0.5,grey,868QjBWzCzdrbYuwCAVTLagW7ns2
trial,106,,2,,3000,199.90000000002328,54,,False,0.5,grey,868QjBWzCzdrbYuwCAVTLagW7ns2
trial,107,,1,,3100,691.7999999999884,55,,False,0.5,grey,868QjBWzCzdrbYuwCAVTLagW7ns2
trial,108,,2,,3200,333.4000000000233,56,,False,0.5,grey,868QjBWzCzdrbYuwCAVTLagW7ns2
trial,109,,1,,3150,491.70000000001164,56,,True,0.5,grey,868QjBWzCzdrbYuwCAVTLagW7ns2
trial,110,,2,,3250,283.29999999998836,57,,False,0.5,grey,868QjBWzCzdrbYuwCAVTLagW7ns2
trial,111,,1,,3250,433.3999999999942,57,,False,0.5,grey,868QjBWzCzdrbYuwCAVTLagW7ns2
trial,112,,1,,3350,2625.0,58,,False,0.5,grey,868QjBWzCzdrbYuwCAVTLagW7ns2
trial,113,,2,,3300,916.6000000000058,58,,True,0.5,grey,868QjBWzCzdrbYuwCAVTLagW7ns2
trial,114,,1,,3400,283.4000000000233,59,,False,0.5,grey,868QjBWzCzdrbYuwCAVTLagW7ns2
trial,115,,2,,3350,441.79999999998836,59,,True,0.5,grey,868QjBWzCzdrbYuwCAVTLagW7ns2
trial,116,,1,,3450,266.79999999998836,60,,False,0.5,grey,868QjBWzCzdrbYuwCAVTLagW7ns2
trial,117,,2,,3400,558.3999999999651,60,,True,0.5,grey,868QjBWzCzdrbYuwCAVTLagW7ns2
trial,118,,1,,3500,325.0,61,,False,0.5,grey,868QjBWzCzdrbYuwCAVTLagW7ns2
trial,119,,2,,3450,358.4000000000233,61,,True,0.5,grey,868QjBWzCzdrbYuwCAVTLagW7ns2
trial,120,,1,,3400,341.69999999995343,61,,True,0.5,grey,868QjBWzCzdrbYuwCAVTLagW7ns2
trial,121,,2,,3350,300.0999999999767,61,,True,0.5,grey,868QjBWzCzdrbYuwCAVTLagW7ns2
trial,122,,1,,3300,333.4000000000233,61,,True,0.5,grey,868QjBWzCzdrbYuwCAVTLagW7ns2
trial,123,,2,,3250,366.70000000001164,61,,True,0.5,grey,868QjBWzCzdrbYuwCAVTLagW7ns2
trial,124,,2,,3200,466.6000000000349,61,,True,0.5,grey,868QjBWzCzdrbYuwCAVTLagW7ns2
trial,125,,2,,3300,408.30000000004657,62,,False,0.5,grey,868QjBWzCzdrbYuwCAVTLagW7ns2
trial,126,,1,,3400,483.4000000000233,63,,False,0.5,grey,868QjBWzCzdrbYuwCAVTLagW7ns2
trial,127,,2,,3500,483.20000000001164,64,,False,0.5,grey,868QjBWzCzdrbYuwCAVTLagW7ns2
trial,128,,1,,3450,383.29999999998836,64,,True,0.5,grey,868QjBWzCzdrbYuwCAVTLagW7ns2
trial,129,,2,,3550,391.5,65,,False,0.5,grey,868QjBWzCzdrbYuwCAVTLagW7ns2
trial,130,,1,,3650,383.29999999998836,66,,False,0.5,grey,868QjBWzCzdrbYuwCAVTLagW7ns2
trial,131,,2,,3750,383.29999999998836,67,,False,0.5,grey,868QjBWzCzdrbYuwCAVTLagW7ns2
trial,132,,1,,3700,475.20000000001164,67,,True,0.5,grey,868QjBWzCzdrbYuwCAVTLagW7ns2
trial,133,,2,,3650,358.4000000000233,67,,True,0.5,grey,868QjBWzCzdrbYuwCAVTLagW7ns2
trial,134,,1,,3750,291.5999999999767,68,,False,0.5,grey,868QjBWzCzdrbYuwCAVTLagW7ns2
trial,135,,2,,3700,425.0,68,,True,0.5,grey,868QjBWzCzdrbYuwCAVTLagW7ns2
trial,136,,1,,3800,300.0,69,,False,0.5,grey,868QjBWzCzdrbYuwCAVTLagW7ns2
trial,137,,2,,3750,491.69999999995343,69,,True,0.5,grey,868QjBWzCzdrbYuwCAVTLagW7ns2
trial,138,,1,,3850,333.4000000000233,70,,False,0.5,grey,868QjBWzCzdrbYuwCAVTLagW7ns2
trial,139,,2,,3800,500.0,70,,True,0.5,grey,868QjBWzCzdrbYuwCAVTLagW7ns2
trial,140,,1,,3750,458.4000000000233,70,,True,0.5,grey,868QjBWzCzdrbYuwCAVTLagW7ns2
trial,141,,2,,3700,324.8999999999651,70,,True,0.5,grey,868QjBWzCzdrbYuwCAVTLagW7ns2
trial,142,,1,,3650,333.29999999998836,70,,True,0.5,grey,868QjBWzCzdrbYuwCAVTLagW7ns2
trial,143,,2,,3750,316.70000000001164,71,,False,0.5,grey,868QjBWzCzdrbYuwCAVTLagW7ns2
trial,144,,1,,3850,333.3999999999651,72,,False,0.5,grey,868QjBWzCzdrbYuwCAVTLagW7ns2
trial,145,,2,,3800,416.70000000001164,72,,True,0.5,grey,868QjBWzCzdrbYuwCAVTLagW7ns2
trial,146,,1,,3900,299.8999999999651,73,,False,0.5,grey,868QjBWzCzdrbYuwCAVTLagW7ns2
trial,147,,2,,4000,450.0,74,,False,0.5,grey,868QjBWzCzdrbYuwCAVTLagW7ns2
trial,148,,1,,3950,925.0999999999767,74,,True,0.5,grey,868QjBWzCzdrbYuwCAVTLagW7ns2
trial,149,,2,,4050,400.0,75,,False,0.5,grey,868QjBWzCzdrbYuwCAVTLagW7ns2
trial,150,,1,,4150,783.3999999999651,76,,False,0.5,grey,868QjBWzCzdrbYuwCAVTLagW7ns2
trial,151,,2,,4250,400.1000000000349,77,,False,0.5,grey,868QjBWzCzdrbYuwCAVTLagW7ns2
trial,152,,1,,4200,350.0,77,,True,0.5,grey,868QjBWzCzdrbYuwCAVTLagW7ns2
trial,153,,2,,4150,333.5,77,,True,0.5,grey,868QjBWzCzdrbYuwCAVTLagW7ns2
trial,154,,1,,4250,241.79999999998836,78,,False,0.5,grey,868QjBWzCzdrbYuwCAVTLagW7ns2
trial,155,,2,,4200,475.0,78,,True,0.5,grey,868QjBWzCzdrbYuwCAVTLagW7ns2
trial,156,,1,,4300,308.5,79,,False,0.5,grey,868QjBWzCzdrbYuwCAVTLagW7ns2
trial,157,,2,,4400,466.70000000001164,80,,False,0.5,grey,868QjBWzCzdrbYuwCAVTLagW7ns2
trial,158,,1,,4400,358.5,80,,False,0.5,grey,868QjBWzCzdrbYuwCAVTLagW7ns2
trial,159,,2,,4350,1833.4000000000233,80,,True,0.5,grey,868QjBWzCzdrbYuwCAVTLagW7ns2
trial,160,,1,,4450,266.70000000001164,81,,False,0.5,grey,868QjBWzCzdrbYuwCAVTLagW7ns2
trial,161,,2,,4400,291.70000000001164,81,,True,0.5,grey,868QjBWzCzdrbYuwCAVTLagW7ns2
trial,162,,1,,4400,308.29999999998836,81,,False,0.5,grey,868QjBWzCzdrbYuwCAVTLagW7ns2
trial,163,,1,,4500,50.0,82,,False,0.5,grey,868QjBWzCzdrbYuwCAVTLagW7ns2
trial,164,,2,,4450,491.70000000001164,82,,True,0.5,grey,868QjBWzCzdrbYuwCAVTLagW7ns2
trial,165,,1,,4550,266.70000000001164,83,,False,0.5,grey,868QjBWzCzdrbYuwCAVTLagW7ns2
trial,166,,2,,4500,375.0,83,,True,0.5,grey,868QjBWzCzdrbYuwCAVTLagW7ns2
trial,167,,1,,4600,250.0,84,,False,0.5,grey,868QjBWzCzdrbYuwCAVTLagW7ns2
trial,168,,2,,4550,416.70000000001164,84,,True,0.5,grey,868QjBWzCzdrbYuwCAVTLagW7ns2
trial,169,,1,,4500,282.9000000000233,84,,True,0.5,grey,868QjBWzCzdrbYuwCAVTLagW7ns2
trial,170,,2,,4450,541.5,84,,True,0.5,grey,868QjBWzCzdrbYuwCAVTLagW7ns2
trial,171,,1,,4550,241.79999999998836,85,,False,0.5,grey,868QjBWzCzdrbYuwCAVTLagW7ns2
trial,172,,2,,4650,1466.600000000035,86,,False,0.5,grey,868QjBWzCzdrbYuwCAVTLagW7ns2
trial,173,,1,,4750,375.1000000000349,87,,False,0.5,grey,868QjBWzCzdrbYuwCAVTLagW7ns2
trial,174,,2,,4700,1166.7000000000116,87,,True,0.5,grey,868QjBWzCzdrbYuwCAVTLagW7ns2
trial,175,,1,,4800,250.0,88,,False,0.5,grey,868QjBWzCzdrbYuwCAVTLagW7ns2
trial,176,,2,,4750,366.5999999999767,88,,True,0.5,grey,868QjBWzCzdrbYuwCAVTLagW7ns2
trial,177,,1,,4700,249.90000000002328,88,,True,0.5,grey,868QjBWzCzdrbYuwCAVTLagW7ns2
trial,178,,2,,4800,325.0,89,,False,0.5,grey,868QjBWzCzdrbYuwCAVTLagW7ns2
trial,179,,1,,4900,283.29999999998836,90,,False,0.5,grey,868QjBWzCzdrbYuwCAVTLagW7ns2
trial,180,,2,,4850,474.9000000000233,90,,True,0.5,grey,868QjBWzCzdrbYuwCAVTLagW7ns2
trial,1,,1,,100,883.2999999999993,1,,False,0.5,grey,93zwRCMqLXMs6CuE2W1q09MnQOM2
trial,2,,1,,50,1533.2999999999993,1,,True,0.5,grey,93zwRCMqLXMs6CuE2W1q09MnQOM2
trial,3,,2,,0,516.6999999999971,1,,True,0.5,grey,93zwRCMqLXMs6CuE2W1q09MnQOM2
trial,4,,2,,100,400.0,2,,False,0.5,grey,93zwRCMqLXMs6CuE2W1q09MnQOM2
trial,5,,2,,50,33.39999999999418,2,,True,0.5,grey,93zwRCMqLXMs6CuE2W1q09MnQOM2
trial,6,,2,,150,483.1999999999971,3,,False,0.5,grey,93zwRCMqLXMs6CuE2W1q09MnQOM2
trial,7,,2,,250,1366.699999999997,4,,False,0.5,grey,93zwRCMqLXMs6CuE2W1q09MnQOM2
trial,8,,2,,350,1366.699999999997,5,,False,0.5,grey,93zwRCMqLXMs6CuE2W1q09MnQOM2
trial,9,,2,,450,1433.2000000000044,6,,False,0.5,grey,93zwRCMqLXMs6CuE2W1q09MnQOM2
trial,10,,2,,550,1350.0,7,,False,0.5,grey,93zwRCMqLXMs6CuE2W1q09MnQOM2
trial,11,,2,,650,1316.5,8,,False,0.5,grey,93zwRCMqLXMs6CuE2W1q09MnQOM2
trial,12,,2,,650,1299.9000000000015,8,,False,0.5,grey,93zwRCMqLXMs6CuE2W1q09MnQOM2
trial,13,,2,,600,533.2999999999956,8,,True,0.5,grey,93zwRCMqLXMs6CuE2W1q09MnQOM2
trial,14,,2,,700,283.3000000000029,9,,False,0.5,grey,93zwRCMqLXMs6CuE2W1q09MnQOM2
trial,15,,2,,800,1333.2000000000044,10,,False,0.5,grey,93zwRCMqLXMs6CuE2W1q09MnQOM2
trial,16,,2,,750,566.7000000000044,10,,True,0.5,grey,93zwRCMqLXMs6CuE2W1q09MnQOM2
trial,17,,2,,850,300.0,11,,False,0.5,grey,93zwRCMqLXMs6CuE2W1q09MnQOM2
trial,18,,2,,950,533.3999999999942,12,,False,0.5,grey,93zwRCMqLXMs6CuE2W1q09MnQOM2
trial,19,,2,,900,483.1999999999971,12,,True,0.5,grey,93zwRCMqLXMs6CuE2W1q09MnQOM2
trial,20,,2,,850,333.3000000000029,12,,True,0.5,grey,93zwRCMqLXMs6CuE2W1q09MnQOM2
trial,21,,1,,800,250.0,12,,True,0.5,grey,93zwRCMqLXMs6CuE2W1q09MnQOM2
trial,22,,1,,900,433.5,13,,False,0.5,grey,93zwRCMqLXMs6CuE2W1q09MnQOM2
trial,23,,1,,1000,466.6999999999971,14,,False,0.5,grey,93zwRCMqLXMs6CuE2W1q09MnQOM2
trial,24,,1,,950,400.1000000000058,14,,True,0.5,grey,93zwRCMqLXMs6CuE2W1q09MnQOM2
trial,25,,1,,950,399.8999999999942,14,,False,0.5,grey,93zwRCMqLXMs6CuE2W1q09MnQOM2
trial,26,,1,,1050,1616.6000000000058,15,,False,0.5,grey,93zwRCMqLXMs6CuE2W1q09MnQOM2
trial,27,,1,,1000,566.7000000000116,15,,True,0.5,grey,93zwRCMqLXMs6CuE2W1q09MnQOM2
trial,28,,1,,1100,266.6000000000058,16,,False,0.5,grey,93zwRCMqLXMs6CuE2W1q09MnQOM2
trial,29,,1,,1200,433.3999999999942,17,,False,0.5,grey,93zwRCMqLXMs6CuE2W1q09MnQOM2
trial,30,,1,,1300,366.6000000000058,18,,False,0.5,grey,93zwRCMqLXMs6CuE2W1q09MnQOM2
trial,31,,1,,1250,533.3000000000029,18,,True,0.5,grey,93zwRCMqLXMs6CuE2W1q09MnQOM2
trial,32,,1,,1350,283.3999999999942,19,,False,0.5,grey,93zwRCMqLXMs6CuE2W1q09MnQOM2
trial,33,,1,,1450,466.70000000001164,20,,False,0.5,grey,93zwRCMqLXMs6CuE2W1q09MnQOM2
trial,34,,1,,1550,350.1000000000058,21,,False,0.5,grey,93zwRCMqLXMs6CuE2W1q09MnQOM2
trial,35,,1,,1650,233.20000000001164,22,,False,0.5,grey,93zwRCMqLXMs6CuE2W1q09MnQOM2
trial,36,,1,,1600,300.0,22,,True,0.5,grey,93zwRCMqLXMs6CuE2W1q09MnQOM2
trial,37,,1,,1700,233.40000000000873,23,,False,0.5,grey,93zwRCMqLXMs6CuE2W1q09MnQOM2
trial,38,,1,,1700,383.3000000000029,23,,False,0.5,grey,93zwRCMqLXMs6CuE2W1q09MnQOM2
trial,39,,1,,1800,66.69999999999709,24,,False,0.5,grey,93zwRCMqLXMs6CuE2W1q09MnQOM2
trial,40,,2,,1750,550.0,24,,True,0.5,grey,93zwRCMqLXMs6CuE2W1q09MnQOM2
trial,41,,2,,1700,266.6999999999971,24,,True,0.5,grey,93zwRCMqLXMs6CuE2W1q09MnQOM2
trial,42,,2,,1800,249.89999999999418,25,,False,0.5,grey,93zwRCMqLXMs6CuE2W1q09MnQOM2
trial,43,,2,,1750,483.3999999999942,25,,True,0.5,grey,93zwRCMqLXMs6CuE2W1q09MnQOM2
trial,44,,1,,1700,449.90000000000873,25,,True,0.5,grey,93zwRCMqLXMs6CuE2W1q09MnQOM2
trial,45,,1,,1650,816.8000000000029,25,,True,0.5,grey,93zwRCMqLXMs6CuE2W1q09MnQOM2
trial,46,,2,,1750,316.6999999999971,26,,False,0.5,grey,93zwRCMqLXMs6CuE2W1q09MnQOM2
trial,47,,2,,1850,383.40000000000873,27,,False,0.5,grey,93zwRCMqLXMs6CuE2W1q09MnQOM2
trial,48,,2,,1850,216.8000000000029,27,,False,0.5,grey,93zwRCMqLXMs6CuE2W1q09MnQOM2
trial,49,,2,,1850,1099.8999999999942,27,,False,0.5,grey,93zwRCMqLXMs6CuE2W1q09MnQOM2
trial,50,,2,,1800,1966.6000000000058,27,,True,0.5,grey,93zwRCMqLXMs6CuE2W1q09MnQOM2
trial,51,,2,,1800,266.79999999998836,27,,False,0.5,grey,93zwRCMqLXMs6CuE2W1q09MnQOM2
trial,52,,2,,1900,866.5,28,,False,0.5,grey,93zwRCMqLXMs6CuE2W1q09MnQOM2
trial,53,,2,,2000,350.0,29,,False,0.5,grey,93zwRCMqLXMs6CuE2W1q09MnQOM2
trial,54,,2,,2100,266.6000000000058,30,,False,0.5,grey,93zwRCMqLXMs6CuE2W1q09MnQOM2
trial,55,,2,,2200,350.0,31,,False,0.5,grey,93zwRCMqLXMs6CuE2W1q09MnQOM2
trial,56,,2,,2300,316.70000000001164,32,,False,0.5,grey,93zwRCMqLXMs6CuE2W1q09MnQOM2
trial,57,,2,,2250,1033.2000000000116,32,,True,0.5,grey,93zwRCMqLXMs6CuE2W1q09MnQOM2
trial,58,,2,,2250,1233.3999999999942,32,,False,0.5,grey,93zwRCMqLXMs6CuE2W1q09MnQOM2
trial,59,,2,,2200,350.0,32,,True,0.5,grey,93zwRCMqLXMs6CuE2W1q09MnQOM2
trial,60,,2,,2300,516.6000000000058,33,,False,0.5,grey,93zwRCMqLXMs6CuE2W1q09MnQOM2
trial,61,,2,,2250,1349.8999999999942,33,,True,0.5,grey,93zwRCMqLXMs6CuE2W1q09MnQOM2
trial,62,,1,,2350,433.3999999999942,34,,False,0.5,grey,93zwRCMqLXMs6CuE2W1q09MnQOM2
trial,63,,1,,2300,300.0,34,,True,0.5,grey,93zwRCMqLXMs6CuE2W1q09MnQOM2
trial,64,,1,,2400,266.70000000001164,35,,False,0.5,grey,93zwRCMqLXMs6CuE2W1q09MnQOM2
trial,65,,1,,2500,333.29999999998836,36,,False,0.5,grey,93zwRCMqLXMs6CuE2W1q09MnQOM2
trial,66,,1,,2450,250.10000000000582,36,,True,0.5,grey,93zwRCMqLXMs6CuE2W1q09MnQOM2
trial,67,,1,,2550,250.10000000000582,37,,False,0.5,grey,93zwRCMqLXMs6CuE2W1q09MnQOM2
trial,68,,1,,2650,400.0,38,,False,0.5,grey,93zwRCMqLXMs6CuE2W1q09MnQOM2
trial,69,,1,,2650,266.69999999998254,38,,False,0.5,grey,93zwRCMqLXMs6CuE2W1q09MnQOM2
trial,70,,1,,2600,900.0,38,,True,0.5,grey,93zwRCMqLXMs6CuE2W1q09MnQOM2
trial,71,,1,,2600,283.30000000001746,38,,False,0.5,grey,93zwRCMqLXMs6CuE2W1q09MnQOM2
trial,72,,2,,2550,83.29999999998836,38,,True,0.5,grey,93zwRCMqLXMs6CuE2W1q09MnQOM2
trial,73,,2,,2650,266.6000000000058,39,,False,0.5,grey,93zwRCMqLXMs6CuE2W1q09MnQOM2
trial,74,,1,,2750,1216.5999999999767,40,,False,0.5,grey,93zwRCMqLXMs6CuE2W1q09MnQOM2
trial,75,,2,,2850,616.6000000000058,41,,False,0.5,grey,93zwRCMqLXMs6CuE2W1q09MnQOM2
trial,76,,1,,2800,599.8999999999942,41,,True,0.5,grey,93zwRCMqLXMs6CuE2W1q09MnQOM2
trial,77,,2,,2750,366.69999999998254,41,,True,0.5,grey,93zwRCMqLXMs6CuE2W1q09MnQOM2
trial,78,,2,,2700,400.0,41,,True,0.5,grey,93zwRCMqLXMs6CuE2W1q09MnQOM2
trial,79,,2,,2800,300.0,42,,False,0.5,grey,93zwRCMqLXMs6CuE2W1q09MnQOM2
trial,80,,2,,2900,466.5999999999767,43,,False,0.5,grey,93zwRCMqLXMs6CuE2W1q09MnQOM2
trial,81,,2,,2850,600.0,43,,True,0.5,grey,93zwRCMqLXMs6CuE2W1q09MnQOM2
trial,82,,1,,2950,400.1000000000058,44,,False,0.5,grey,93zwRCMqLXMs6CuE2W1q09MnQOM2
trial,83,,1,,3050,333.29999999998836,45,,False,0.5,grey,93zwRCMqLXMs6CuE2W1q09MnQOM2
trial,84,,1,,3000,350.1000000000058,45,,True,0.5,grey,93zwRCMqLXMs6CuE2W1q09MnQOM2
trial,85,,1,,2950,400.20000000001164,45,,True,0.5,grey,93zwRCMqLXMs6CuE2W1q09MnQOM2
trial,86,,1,,2900,283.30000000001746,45,,True,0.5,grey,93zwRCMqLXMs6CuE2W1q09MnQOM2
trial,87,,2,,3000,333.5,46,,False,0.5,grey,93zwRCMqLXMs6CuE2W1q09MnQOM2
trial,88,,2,,2950,483.29999999998836,46,,True,0.5,grey,93zwRCMqLXMs6CuE2W1q09MnQOM2
trial,89,,2,,2900,466.70000000001164,46,,True,0.5,grey,93zwRCMqLXMs6CuE2W1q09MnQOM2
trial,90,,2,,3000,433.4000000000233,47,,False,0.5,grey,93zwRCMqLXMs6CuE2W1q09MnQOM2
trial,91,,2,,2950,416.5999999999767,47,,True,0.5,grey,93zwRCMqLXMs6CuE2W1q09MnQOM2
trial,92,,1,,2950,399.8999999999942,47,,False,0.5,grey,93zwRCMqLXMs6CuE2W1q09MnQOM2
trial,93,,1,,3050,1450.0,48,,False,0.5,grey,93zwRCMqLXMs6CuE2W1q09MnQOM2
trial,94,,1,,3150,400.0,49,,False,0.5,grey,93zwRCMqLXMs6CuE2W1q09MnQOM2
trial,95,,1,,3250,333.29999999998836,50,,False,0.5,grey,93zwRCMqLXMs6CuE2W1q09MnQOM2
trial,96,,1,,3350,266.70000000001164,51,,False,0.5,grey,93zwRCMqLXMs6CuE2W1q09MnQOM2
trial,97,,1,,3450,166.70000000001164,52,,False,0.5,grey,93zwRCMqLXMs6CuE2W1q09MnQOM2
trial,98,,1,,3550,250.0,53,,False,0.5,grey,93zwRCMqLXMs6CuE2W1q09MnQOM2
trial,99,,1,,3650,450.0,54,,False,0.5,grey,93zwRCMqLXMs6CuE2W1q09MnQOM2
trial,100,,1,,3600,449.8999999999942,54,,True,0.5,grey,93zwRCMqLXMs6CuE2W1q09MnQOM2
trial,101,,2,,3550,433.3999999999942,54,,True,0.5,grey,93zwRCMqLXMs6CuE2W1q09MnQOM2
trial,102,,2,,3500,333.19999999998254,54,,True,0.5,grey,93zwRCMqLXMs6CuE2W1q09MnQOM2
trial,103,,1,,3600,349.8999999999942,55,,False,0.5,grey,93zwRCMqLXMs6CuE2W1q09MnQOM2
trial,104,,1,,3550,266.6000000000058,55,,True,0.5,grey,93zwRCMqLXMs6CuE2W1q09MnQOM2
trial,105,,1,,3650,333.19999999998254,56,,False,0.5,grey,93zwRCMqLXMs6CuE2W1q09MnQOM2
trial,106,,1,,3600,333.3999999999942,56,,True,0.5,grey,93zwRCMqLXMs6CuE2W1q09MnQOM2
trial,107,,1,,3700,250.0,57,,False,0.5,grey,93zwRCMqLXMs6CuE2W1q09MnQOM2
trial,108,,1,,3650,700.0,57,,True,0.5,grey,93zwRCMqLXMs6CuE2W1q09MnQOM2
trial,109,,1,,3600,350.1000000000058,57,,True,0.5,grey,93zwRCMqLXMs6CuE2W1q09MnQOM2
trial,110,,1,,3550,316.70000000001164,57,,True,0.5,grey,93zwRCMqLXMs6CuE2W1q09MnQOM2
trial,111,,1,,3650,250.0,58,,False,0.5,grey,93zwRCMqLXMs6CuE2W1q09MnQOM2
trial,112,,1,,3750,850.1000000000058,59,,False,0.5,grey,93zwRCMqLXMs6CuE2W1q09MnQOM2
trial,113,,1,,3850,666.7000000000116,60,,False,0.5,grey,93zwRCMqLXMs6CuE2W1q09MnQOM2
trial,114,,1,,3950,850.0,61,,False,0.5,grey,93zwRCMqLXMs6CuE2W1q09MnQOM2
trial,115,,1,,3950,1000.0,61,,False,0.5,grey,93zwRCMqLXMs6CuE2W1q09MnQOM2
trial,116,,1,,3950,1900.0,61,,False,0.5,grey,93zwRCMqLXMs6CuE2W1q09MnQOM2
trial,117,,1,,3950,2233.1999999999825,61,,False,0.5,grey,93zwRCMqLXMs6CuE2W1q09MnQOM2
trial,118,,1,,4050,83.29999999998836,62,,False,0.5,grey,93zwRCMqLXMs6CuE2W1q09MnQOM2
trial,119,,1,,4150,1016.5999999999767,63,,False,0.5,grey,93zwRCMqLXMs6CuE2W1q09MnQOM2
trial,120,,1,,4100,466.70000000001164,63,,True,0.5,grey,93zwRCMqLXMs6CuE2W1q09MnQOM2
trial,121,,2,,4050,666.5,63,,True,0.5,grey,93zwRCMqLXMs6CuE2W1q09MnQOM2
trial,122,,2,,4150,516.6999999999534,64,,False,0.5,grey,93zwRCMqLXMs6CuE2W1q09MnQOM2
trial,123,,2,,4100,683.4000000000233,64,,True,0.5,grey,93zwRCMqLXMs6CuE2W1q09MnQOM2
trial,124,,2,,4050,383.70000000001164,64,,True,0.5,grey,93zwRCMqLXMs6CuE2W1q09MnQOM2
trial,125,,1,,4000,250.0,64,,True,0.5,grey,93zwRCMqLXMs6CuE2W1q09MnQOM2
trial,126,,1,,4100,350.1000000000349,65,,False,0.5,grey,93zwRCMqLXMs6CuE2W1q09MnQOM2
trial,127,,1,,4050,483.30000000004657,65,,True,0.5,grey,93zwRCMqLXMs6CuE2W1q09MnQOM2
trial,128,,2,,4150,450.0,66,,False,0.5,grey,93zwRCMqLXMs6CuE2W1q09MnQOM2
trial,129,,2,,4250,483.4000000000233,67,,False,0.5,grey,93zwRCMqLXMs6CuE2W1q09MnQOM2
trial,130,,2,,4200,400.0,67,,True,0.5,grey,93zwRCMqLXMs6CuE2W1q09MnQOM2
trial,131,,2,,4300,333.29999999998836,68,,False,0.5,grey,93zwRCMqLXMs6CuE2W1q09MnQOM2
trial,132,,2,,4300,466.5999999999767,68,,False,0.5,grey,93zwRCMqLXMs6CuE2W1q09MnQOM2
trial,133,,2,,4250,2066.7000000000116,68,,True,0.5,grey,93zwRCMqLXMs6CuE2W1q09MnQOM2
trial,134,,2,,4200,1200.100000000035,68,,True,0.5,grey,93zwRCMqLXMs6CuE2W1q09MnQOM2
trial,135,,2,,4150,316.70000000001164,68,,True,0.5,grey,93zwRCMqLXMs6CuE2W1q09MnQOM2
trial,136,,1,,4250,233.5,69,,False,0.5,grey,93zwRCMqLXMs6CuE2W1q09MnQOM2
trial,137,,1,,4350,1033.1999999999534,70,,False,0.5,grey,93zwRCMqLXMs6CuE2W1q09MnQOM2
trial,138,,1,,4450,1166.5999999999767,71,,False,0.5,grey,93zwRCMqLXMs6CuE2W1q09MnQOM2
trial,139,,1,,4550,1233.2999999999884,72,,False,0.5,grey,93zwRCMqLXMs6CuE2W1q09MnQOM2
trial,140,,1,,4500,366.5,72,,True,0.5,grey,93zwRCMqLXMs6CuE2W1q09MnQOM2
trial,141,,1,,4600,716.6000000000349,73,,False,0.5,grey,93zwRCMqLXMs6CuE2W1q09MnQOM2
trial,142,,1,,4550,933.2999999999884,73,,True,0.5,grey,93zwRCMqLXMs6CuE2W1q09MnQOM2
trial,143,,1,,4500,416.5,73,,True,0.5,grey,93zwRCMqLXMs6CuE2W1q09MnQOM2
trial,144,,2,,4450,316.69999999995343,73,,True,0.5,grey,93zwRCMqLXMs6CuE2W1q09MnQOM2
trial,145,,2,,4400,716.8000000000466,73,,True,0.5,grey,93zwRCMqLXMs6CuE2W1q09MnQOM2
trial,146,,2,,4350,449.9000000000233,73,,True,0.5,grey,93zwRCMqLXMs6CuE2W1q09MnQOM2
trial,147,,1,,4300,466.69999999995343,73,,True,0.5,grey,93zwRCMqLXMs6CuE2W1q09MnQOM2
trial,148,,2,,4400,416.70000000001164,74,,False,0.5,grey,93zwRCMqLXMs6CuE2W1q09MnQOM2
trial,149,,2,,4500,466.6000000000349,75,,False,0.5,grey,93zwRCMqLXMs6CuE2W1q09MnQOM2
trial,150,,2,,4450,1383.4000000000233,75,,True,0.5,grey,93zwRCMqLXMs6CuE2W1q09MnQOM2
trial,151,,2,,4550,466.5999999999767,76,,False,0.5,grey,93zwRCMqLXMs6CuE2W1q09MnQOM2
trial,152,,1,,4500,1116.5999999999767,76,,True,0.5,grey,93zwRCMqLXMs6CuE2W1q09MnQOM2
trial,153,,1,,4600,283.29999999998836,77,,False,0.5,grey,93zwRCMqLXMs6CuE2W1q09MnQOM2
trial,154,,1,,4700,1083.399999999965,78,,False,0.5,grey,93zwRCMqLXMs6CuE2W1q09MnQOM2
trial,155,,1,,4800,850.2000000000116,79,,False,0.5,grey,93zwRCMqLXMs6CuE2W1q09MnQOM2
trial,156,,1,,4900,766.6000000000349,80,,False,0.5,grey,93zwRCMqLXMs6CuE2W1q09MnQOM2
trial,157,,1,,4850,1033.2999999999884,80,,True,0.5,grey,93zwRCMqLXMs6CuE2W1q09MnQOM2
trial,158,,2,,4800,449.9000000000233,80,,True,0.5,grey,93zwRCMqLXMs6CuE2W1q09MnQOM2
trial,159,,2,,4750,566.7000000000116,80,,True,0.5,grey,93zwRCMqLXMs6CuE2W1q09MnQOM2
trial,160,,2,,4700,450.0,80,,True,0.5,grey,93zwRCMqLXMs6CuE2W1q09MnQOM2
trial,161,,1,,4800,316.5999999999767,81,,False,0.5,grey,93zwRCMqLXMs6CuE2W1q09MnQOM2
trial,162,,2,,4750,849.8999999999651,81,,True,0.5,grey,93zwRCMqLXMs6CuE2W1q09MnQOM2
trial,163,,1,,4850,333.4000000000233,82,,False,0.5,grey,93zwRCMqLXMs6CuE2W1q09MnQOM2
trial,164,,1,,4950,500.0,83,,False,0.5,grey,93zwRCMqLXMs6CuE2W1q09MnQOM2
trial,165,,1,,4950,416.70000000001164,83,,False,0.5,grey,93zwRCMqLXMs6CuE2W1q09MnQOM2
trial,166,,1,,5050,1683.399999999965,84,,False,0.5,grey,93zwRCMqLXMs6CuE2W1q09MnQOM2
trial,167,,1,,5150,1366.6999999999534,85,,False,0.5,grey,93zwRCMqLXMs6CuE2W1q09MnQOM2
trial,168,,1,,5250,666.6999999999534,86,,False,0.5,grey,93zwRCMqLXMs6CuE2W1q09MnQOM2
trial,169,,2,,5350,1016.7999999999884,87,,False,0.5,grey,93zwRCMqLXMs6CuE2W1q09MnQOM2
trial,170,,2,,5300,1033.399999999965,87,,True,0.5,grey,93zwRCMqLXMs6CuE2W1q09MnQOM2
trial,171,,1,,5400,383.20000000001164,88,,False,0.5,grey,93zwRCMqLXMs6CuE2W1q09MnQOM2
trial,172,,1,,5350,633.3000000000466,88,,True,0.5,grey,93zwRCMqLXMs6CuE2W1q09MnQOM2
trial,173,,2,,5300,899.8000000000466,88,,True,0.5,grey,93zwRCMqLXMs6CuE2W1q09MnQOM2
trial,174,,2,,5250,433.4000000000233,88,,True,0.5,grey,93zwRCMqLXMs6CuE2W1q09MnQOM2
trial,175,,1,,5350,399.8999999999651,89,,False,0.5,grey,93zwRCMqLXMs6CuE2W1q09MnQOM2
trial,176,,1,,5350,483.29999999998836,89,,False,0.5,grey,93zwRCMqLXMs6CuE2W1q09MnQOM2
trial,177,,1,,5300,749.9000000000233,89,,True,0.5,grey,93zwRCMqLXMs6CuE2W1q09MnQOM2
trial,178,,1,,5250,350.0,89,,True,0.5,grey,93zwRCMqLXMs6CuE2W1q09MnQOM2
trial,179,,1,,5350,333.29999999998836,90,,False,0.5,grey,93zwRCMqLXMs6CuE2W1q09MnQOM2
trial,180,,2,,5300,750.1000000000349,90,,True,0.5,grey,93zwRCMqLXMs6CuE2W1q09MnQOM2
trial,1,,1,,100,736.7000000000007,1,,False,0.5,grey,FkyRcpz4tbditR5qN127erdU20c2
trial,2,,2,,50,1383.5,1,,True,0.5,grey,FkyRcpz4tbditR5qN127erdU20c2
trial,3,,1,,150,516.5999999999985,2,,False,0.5,grey,FkyRcpz4tbditR5qN127erdU20c2
trial,4,,2,,100,1483.199999999997,2,,True,0.5,grey,FkyRcpz4tbditR5qN127erdU20c2
trial,5,,2,,50,708.2999999999956,2,,True,0.5,grey,FkyRcpz4tbditR5qN127erdU20c2
trial,6,,1,,150,375.0,3,,False,0.5,grey,FkyRcpz4tbditR5qN127erdU20c2
trial,7,,1,,250,1507.7000000000044,4,,False,0.5,grey,FkyRcpz4tbditR5qN127erdU20c2
trial,8,,2,,200,325.40000000000146,4,,True,0.5,grey,FkyRcpz4tbditR5qN127erdU20c2
trial,9,,2,,150,258.3000000000029,4,,True,0.5,grey,FkyRcpz4tbditR5qN127erdU20c2
trial,10,,1,,100,183.29999999999563,4,,True,0.5,grey,FkyRcpz4tbditR5qN127erdU20c2
trial,11,,1,,200,475.0,5,,False,0.5,grey,FkyRcpz4tbditR5qN127erdU20c2
trial,12,,1,,200,1549.9000000000015,5,,False,0.5,grey,FkyRcpz4tbditR5qN127erdU20c2
trial,13,,1,,300,391.6999999999971,6,,False,0.5,grey,FkyRcpz4tbditR5qN127erdU20c2
trial,14,,1,,250,1358.7999999999956,6,,True,0.5,grey,FkyRcpz4tbditR5qN127erdU20c2
trial,15,,1,,350,274.1999999999971,7,,False,0.5,grey,FkyRcpz4tbditR5qN127erdU20c2
trial,16,,1,,300,1282.6000000000058,7,,True,0.5,grey,FkyRcpz4tbditR5qN127erdU20c2
trial,17,,1,,400,566.6999999999971,8,,False,0.5,grey,FkyRcpz4tbditR5qN127erdU20c2
trial,18,,1,,350,1283.300000000003,8,,True,0.5,grey,FkyRcpz4tbditR5qN127erdU20c2
trial,19,,1,,300,325.0,8,,True,0.5,grey,FkyRcpz4tbditR5qN127erdU20c2
trial,20,,1,,250,208.20000000001164,8,,True,0.5,grey,FkyRcpz4tbditR5qN127erdU20c2
trial,21,,2,,200,91.69999999999709,8,,True,0.5,grey,FkyRcpz4tbditR5qN127erdU20c2
trial,22,,2,,150,242.29999999998836,8,,True,0.5,grey,FkyRcpz4tbditR5qN127erdU20c2
trial,23,,2,,100,174.8000000000029,8,,True,0.5,grey,FkyRcpz4tbditR5qN127erdU20c2
trial,24,,2,,50,216.60000000000582,8,,True,0.5,grey,FkyRcpz4tbditR5qN127erdU20c2
trial,25,,1,,50,350.0,8,,False,0.5,grey,FkyRcpz4tbditR5qN127erdU20c2
trial,26,,1,,150,774.9000000000087,9,,False,0.5,grey,FkyRcpz4tbditR5qN127erdU20c2
trial,27,,1,,250,1224.1000000000058,10,,False,0.5,grey,FkyRcpz4tbditR5qN127erdU20c2
trial,28,,1,,350,333.3999999999942,11,,False,0.5,grey,FkyRcpz4tbditR5qN127erdU20c2
trial,29,,1,,450,333.3999999999942,12,,False,0.5,grey,FkyRcpz4tbditR5qN127erdU20c2
trial,30,,1,,400,1375.699999999997,12,,True,0.5,grey,FkyRcpz4tbditR5qN127erdU20c2
trial,31,,1,,400,283.20000000001164,12,,False,0.5,grey,FkyRcpz4tbditR5qN127erdU20c2
trial,32,,1,,350,533.3999999999942,12,,True,0.5,grey,FkyRcpz4tbditR5qN127erdU20c2
trial,33,,1,,450,283.3999999999942,13,,False,0.5,grey,FkyRcpz4tbditR5qN127erdU20c2
trial,34,,1,,450,274.09999999999127,13,,False,0.5,grey,FkyRcpz4tbditR5qN127erdU20c2
trial,35,,1,,400,224.89999999999418,13,,True,0.5,grey,FkyRcpz4tbditR5qN127erdU20c2
trial,36,,2,,350,24.09999999999127,13,,True,0.5,grey,FkyRcpz4tbditR5qN127erdU20c2
trial,37,,2,,450,274.8999999999942,14,,False,0.5,grey,FkyRcpz4tbditR5qN127erdU20c2
trial,38,,2,,550,1265.699999999997,15,,False,0.5,grey,FkyRcpz4tbditR5qN127erdU20c2
trial,39,,2,,650,1290.699999999997,16,,False,0.5,grey,FkyRcpz4tbditR5qN127erdU20c2
trial,40,,2,,600,365.79999999998836,16,,True,0.5,grey,FkyRcpz4tbditR5qN127erdU20c2
trial,41,,2,,700,250.70000000001164,17,,False,0.5,grey,FkyRcpz4tbditR5qN127erdU20c2
trial,42,,2,,800,657.6999999999971,18,,False,0.5,grey,FkyRcpz4tbditR5qN127erdU20c2
trial,43,,2,,750,450.09999999999127,18,,True,0.5,grey,FkyRcpz4tbditR5qN127erdU20c2
trial,44,,1,,850,362.1999999999971,19,,False,0.5,grey,FkyRcpz4tbditR5qN127erdU20c2
trial,45,,1,,950,366.8000000000029,20,,False,0.5,grey,FkyRcpz4tbditR5qN127erdU20c2
trial,46,,1,,1050,350.3000000000029,21,,False,0.5,grey,FkyRcpz4tbditR5qN127erdU20c2
trial,47,,1,,1050,283.40000000000873,21,,False,0.5,grey,FkyRcpz4tbditR5qN127erdU20c2
trial,48,,1,,1150,67.60000000000582,22,,False,0.5,grey,FkyRcpz4tbditR5qN127erdU20c2
trial,49,,1,,1150,300.0,22,,False,0.5,grey,FkyRcpz4tbditR5qN127erdU20c2
trial,50,,1,,1100,474.90000000000873,22,,True,0.5,grey,FkyRcpz4tbditR5qN127erdU20c2
trial,51,,1,,1100,333.3000000000029,22,,False,0.5,grey,FkyRcpz4tbditR5qN127erdU20c2
trial,52,,1,,1050,66.60000000000582,22,,True,0.5,grey,FkyRcpz4tbditR5qN127erdU20c2
trial,53,,1,,1000,241.70000000001164,22,,True,0.5,grey,FkyRcpz4tbditR5qN127erdU20c2
trial,54,,1,,1100,241.70000000001164,23,,False,0.5,grey,FkyRcpz4tbditR5qN127erdU20c2
trial,55,,1,,1200,1233.3999999999942,24,,False,0.5,grey,FkyRcpz4tbditR5qN127erdU20c2
trial,56,,1,,1300,491.69999999998254,25,,False,0.5,grey,FkyRcpz4tbditR5qN127erdU20c2
trial,57,,1,,1250,582.3000000000175,25,,True,0.5,grey,FkyRcpz4tbditR5qN127erdU20c2
trial,58,,1,,1200,275.1000000000058,25,,True,0.5,grey,FkyRcpz4tbditR5qN127erdU20c2
trial,59,,1,,1150,616.6999999999825,25,,True,0.5,grey,FkyRcpz4tbditR5qN127erdU20c2
trial,60,,1,,1250,291.69999999998254,26,,False,0.5,grey,FkyRcpz4tbditR5qN127erdU20c2
trial,61,,1,,1200,424.0999999999767,26,,True,0.5,grey,FkyRcpz4tbditR5qN127erdU20c2
trial,62,,1,,1150,275.0,26,,True,0.5,grey,FkyRcpz4tbditR5qN127erdU20c2
trial,63,,1,,1150,217.5,26,,False,0.5,grey,FkyRcpz4tbditR5qN127erdU20c2
trial,64,,2,,1100,441.6000000000058,26,,True,0.5,grey,FkyRcpz4tbditR5qN127erdU20c2
trial,65,,2,,1050,250.10000000000582,26,,True,0.5,grey,FkyRcpz4tbditR5qN127erdU20c2
trial,66,,2,,1000,300.0,26,,True,0.5,grey,FkyRcpz4tbditR5qN127erdU20c2
trial,67,,1,,950,400.80000000001746,26,,True,0.5,grey,FkyRcpz4tbditR5qN127erdU20c2
trial,68,,1,,950,232.5,26,,False,0.5,grey,FkyRcpz4tbditR5qN127erdU20c2
trial,69,,1,,1050,241.70000000001164,27,,False,0.5,grey,FkyRcpz4tbditR5qN127erdU20c2
trial,70,,1,,1150,365.80000000001746,28,,False,0.5,grey,FkyRcpz4tbditR5qN127erdU20c2
trial,71,,1,,1150,483.29999999998836,28,,False,0.5,grey,FkyRcpz4tbditR5qN127erdU20c2
trial,72,,1,,1250,675.0,29,,False,0.5,grey,FkyRcpz4tbditR5qN127erdU20c2
trial,73,,1,,1350,1000.0,30,,False,0.5,grey,FkyRcpz4tbditR5qN127erdU20c2
trial,74,,1,,1450,283.29999999998836,31,,False,0.5,grey,FkyRcpz4tbditR5qN127erdU20c2
trial,75,,2,,1400,266.5999999999767,31,,True,0.5,grey,FkyRcpz4tbditR5qN127erdU20c2
trial,76,,2,,1350,275.0,31,,True,0.5,grey,FkyRcpz4tbditR5qN127erdU20c2
trial,77,,2,,1300,225.0,31,,True,0.5,grey,FkyRcpz4tbditR5qN127erdU20c2
trial,78,,2,,1250,508.3999999999942,31,,True,0.5,grey,FkyRcpz4tbditR5qN127erdU20c2
trial,79,,2,,1350,283.20000000001164,32,,False,0.5,grey,FkyRcpz4tbditR5qN127erdU20c2
trial,80,,2,,1300,349.0,32,,True,0.5,grey,FkyRcpz4tbditR5qN127erdU20c2
trial,81,,2,,1250,266.6000000000058,32,,True,0.5,grey,FkyRcpz4tbditR5qN127erdU20c2
trial,82,,2,,1250,225.09999999997672,32,,False,0.5,grey,FkyRcpz4tbditR5qN127erdU20c2
trial,83,,2,,1200,24.89999999999418,32,,True,0.5,grey,FkyRcpz4tbditR5qN127erdU20c2
trial,84,,2,,1150,284.0,32,,True,0.5,grey,FkyRcpz4tbditR5qN127erdU20c2
trial,85,,2,,1100,259.30000000001746,32,,True,0.5,grey,FkyRcpz4tbditR5qN127erdU20c2
trial,86,,2,,1050,258.6000000000058,32,,True,0.5,grey,FkyRcpz4tbditR5qN127erdU20c2
trial,87,,1,,1000,241.39999999999418,32,,True,0.5,grey,FkyRcpz4tbditR5qN127erdU20c2
trial,88,,1,,950,266.79999999998836,32,,True,0.5,grey,FkyRcpz4tbditR5qN127erdU20c2
trial,89,,1,,1050,249.90000000002328,33,,False,0.5,grey,FkyRcpz4tbditR5qN127erdU20c2
trial,90,,1,,1150,340.79999999998836,34,,False,0.5,grey,FkyRcpz4tbditR5qN127erdU20c2
trial,91,,1,,1100,833.3999999999942,34,,True,0.5,grey,FkyRcpz4tbditR5qN127erdU20c2
trial,92,,1,,1050,233.10000000000582,34,,True,0.5,grey,FkyRcpz4tbditR5qN127erdU20c2
trial,93,,1,,1000,225.09999999997672,34,,True,0.5,grey,FkyRcpz4tbditR5qN127erdU20c2
trial,94,,1,,950,249.80000000001746,34,,True,0.5,grey,FkyRcpz4tbditR5qN127erdU20c2
trial,95,,1,,900,249.89999999999418,34,,True,0.5,grey,FkyRcpz4tbditR5qN127erdU20c2
trial,96,,2,,1000,250.09999999997672,35,,False,0.5,grey,FkyRcpz4tbditR5qN127erdU20c2
trial,97,,2,,1000,358.4000000000233,35,,False,0.5,grey,FkyRcpz4tbditR5qN127erdU20c2
trial,98,,2,,1000,434.0,35,,False,0.5,grey,FkyRcpz4tbditR5qN127erdU20c2
trial,99,,1,,1100,475.1000000000058,36,,False,0.5,grey,FkyRcpz4tbditR5qN127erdU20c2
trial,100,,1,,1200,659.2999999999884,37,,False,0.5,grey,FkyRcpz4tbditR5qN127erdU20c2
trial,101,,1,,1200,358.29999999998836,37,,False,0.5,grey,FkyRcpz4tbditR5qN127erdU20c2
trial,102,,2,,1300,441.5,38,,False,0.5,grey,FkyRcpz4tbditR5qN127erdU20c2
trial,103,,2,,1250,400.8999999999942,38,,True,0.5,grey,FkyRcpz4tbditR5qN127erdU20c2
trial,104,,2,,1250,309.30000000001746,38,,False,0.5,grey,FkyRcpz4tbditR5qN127erdU20c2
trial,105,,1,,1350,92.10000000000582,39,,False,0.5,grey,FkyRcpz4tbditR5qN127erdU20c2
trial,106,,1,,1300,783.4000000000233,39,,True,0.5,grey,FkyRcpz4tbditR5qN127erdU20c2
trial,107,,1,,1250,258.5,39,,True,0.5,grey,FkyRcpz4tbditR5qN127erdU20c2
trial,108,,1,,1200,250.10000000000582,39,,True,0.5,grey,FkyRcpz4tbditR5qN127erdU20c2
trial,109,,2,,1150,266.5999999999767,39,,True,0.5,grey,FkyRcpz4tbditR5qN127erdU20c2
trial,110,,2,,1100,242.09999999997672,39,,True,0.5,grey,FkyRcpz4tbditR5qN127erdU20c2
trial,111,,2,,1050,441.70000000001164,39,,True,0.5,grey,FkyRcpz4tbditR5qN127erdU20c2
trial,112,,1,,1150,782.4000000000233,40,,False,0.5,grey,FkyRcpz4tbditR5qN127erdU20c2
trial,113,,1,,1250,432.5,41,,False,0.5,grey,FkyRcpz4tbditR5qN127erdU20c2
trial,114,,1,,1200,433.29999999998836,41,,True,0.5,grey,FkyRcpz4tbditR5qN127erdU20c2
trial,115,,1,,1300,1291.5999999999767,42,,False,0.5,grey,FkyRcpz4tbditR5qN127erdU20c2
trial,116,,1,,1400,116.79999999998836,43,,False,0.5,grey,FkyRcpz4tbditR5qN127erdU20c2
trial,117,,1,,1350,342.4000000000233,43,,True,0.5,grey,FkyRcpz4tbditR5qN127erdU20c2
trial,118,,1,,1450,291.70000000001164,44,,False,0.5,grey,FkyRcpz4tbditR5qN127erdU20c2
trial,119,,1,,1550,400.0,45,,False,0.5,grey,FkyRcpz4tbditR5qN127erdU20c2
trial,120,,1,,1650,516.5999999999767,46,,False,0.5,grey,FkyRcpz4tbditR5qN127erdU20c2
trial,121,,1,,1600,808.2999999999884,46,,True,0.5,grey,FkyRcpz4tbditR5qN127erdU20c2
trial,122,,2,,1550,458.4000000000233,46,,True,0.5,grey,FkyRcpz4tbditR5qN127erdU20c2
trial,123,,2,,1500,1150.0999999999767,46,,True,0.5,grey,FkyRcpz4tbditR5qN127erdU20c2
trial,124,,2,,1450,700.7999999999884,46,,True,0.5,grey,FkyRcpz4tbditR5qN127erdU20c2
trial,125,,2,,1400,158.40000000002328,46,,True,0.5,grey,FkyRcpz4tbditR5qN127erdU20c2
trial,126,,1,,1350,166.70000000001164,46,,True,0.5,grey,FkyRcpz4tbditR5qN127erdU20c2
trial,127,,1,,1450,258.20000000001164,47,,False,0.5,grey,FkyRcpz4tbditR5qN127erdU20c2
trial,128,,1,,1550,658.3999999999651,48,,False,0.5,grey,FkyRcpz4tbditR5qN127erdU20c2
trial,129,,1,,1650,375.0,49,,False,0.5,grey,FkyRcpz4tbditR5qN127erdU20c2
trial,130,,1,,1600,383.3999999999651,49,,True,0.5,grey,FkyRcpz4tbditR5qN127erdU20c2
trial,131,,1,,1550,300.8999999999651,49,,True,0.5,grey,FkyRcpz4tbditR5qN127erdU20c2
trial,132,,1,,1500,240.79999999998836,49,,True,0.5,grey,FkyRcpz4tbditR5qN127erdU20c2
trial,133,,2,,1450,267.30000000004657,49,,True,0.5,grey,FkyRcpz4tbditR5qN127erdU20c2
trial,134,,2,,1550,275.0,50,,False,0.5,grey,FkyRcpz4tbditR5qN127erdU20c2
trial,135,,2,,1500,133.5,50,,True,0.5,grey,FkyRcpz4tbditR5qN127erdU20c2
trial,136,,2,,1600,324.9000000000233,51,,False,0.5,grey,FkyRcpz4tbditR5qN127erdU20c2
trial,137,,1,,1600,416.5999999999767,51,,False,0.5,grey,FkyRcpz4tbditR5qN127erdU20c2
trial,138,,1,,1550,91.60000000003492,51,,True,0.5,grey,FkyRcpz4tbditR5qN127erdU20c2
trial,139,,1,,1550,333.4000000000233,51,,False,0.5,grey,FkyRcpz4tbditR5qN127erdU20c2
trial,140,,1,,1650,275.20000000001164,52,,False,0.5,grey,FkyRcpz4tbditR5qN127erdU20c2
trial,141,,2,,1750,1175.1999999999534,53,,False,0.5,grey,FkyRcpz4tbditR5qN127erdU20c2
trial,142,,1,,1700,791.6000000000349,53,,True,0.5,grey,FkyRcpz4tbditR5qN127erdU20c2
trial,143,,1,,1650,290.70000000001164,53,,True,0.5,grey,FkyRcpz4tbditR5qN127erdU20c2
trial,144,,2,,1750,282.79999999998836,54,,False,0.5,grey,FkyRcpz4tbditR5qN127erdU20c2
trial,145,,2,,1850,807.5,55,,False,0.5,grey,FkyRcpz4tbditR5qN127erdU20c2
trial,146,,2,,1950,682.4000000000233,56,,False,0.5,grey,FkyRcpz4tbditR5qN127erdU20c2
trial,147,,1,,1950,917.1000000000349,56,,False,0.5,grey,FkyRcpz4tbditR5qN127erdU20c2
trial,148,,1,,1900,666.6999999999534,56,,True,0.5,grey,FkyRcpz4tbditR5qN127erdU20c2
trial,149,,1,,1850,242.09999999997672,56,,True,0.5,grey,FkyRcpz4tbditR5qN127erdU20c2
trial,150,,2,,1950,0.0,57,,False,0.5,grey,FkyRcpz4tbditR5qN127erdU20c2
trial,151,,1,,1900,958.2000000000116,57,,True,0.5,grey,FkyRcpz4tbditR5qN127erdU20c2
trial,152,,1,,2000,234.29999999998836,58,,False,0.5,grey,FkyRcpz4tbditR5qN127erdU20c2
trial,153,,1,,1950,491.69999999995343,58,,True,0.5,grey,FkyRcpz4tbditR5qN127erdU20c2
trial,154,,1,,1950,208.39999999996508,58,,False,0.5,grey,FkyRcpz4tbditR5qN127erdU20c2
trial,155,,1,,2050,266.5999999999767,59,,False,0.5,grey,FkyRcpz4tbditR5qN127erdU20c2
trial,156,,1,,2000,142.39999999996508,59,,True,0.5,grey,FkyRcpz4tbditR5qN127erdU20c2
trial,157,,1,,2100,216.59999999997672,60,,False,0.5,grey,FkyRcpz4tbditR5qN127erdU20c2
trial,158,,1,,2100,175.0,60,,False,0.5,grey,FkyRcpz4tbditR5qN127erdU20c2
trial,159,,1,,2200,304.0,61,,False,0.5,grey,FkyRcpz4tbditR5qN127erdU20c2
trial,160,,1,,2150,142.5,61,,True,0.5,grey,FkyRcpz4tbditR5qN127erdU20c2
trial,161,,2,,2100,25.0,61,,True,0.5,grey,FkyRcpz4tbditR5qN127erdU20c2
trial,162,,2,,2050,216.5,61,,True,0.5,grey,FkyRcpz4tbditR5qN127erdU20c2
trial,163,,2,,2150,208.40000000002328,62,,False,0.5,grey,FkyRcpz4tbditR5qN127erdU20c2
trial,164,,2,,2100,174.5,62,,True,0.5,grey,FkyRcpz4tbditR5qN127erdU20c2
trial,165,,2,,2100,207.40000000002328,62,,False,0.5,grey,FkyRcpz4tbditR5qN127erdU20c2
trial,166,,2,,2050,149.79999999998836,62,,True,0.5,grey,FkyRcpz4tbditR5qN127erdU20c2
trial,167,,2,,2000,209.30000000004657,62,,True,0.5,grey,FkyRcpz4tbditR5qN127erdU20c2
trial,168,,2,,1950,216.70000000001164,62,,True,0.5,grey,FkyRcpz4tbditR5qN127erdU20c2
trial,169,,2,,2050,216.90000000002328,63,,False,0.5,grey,FkyRcpz4tbditR5qN127erdU20c2
trial,170,,1,,2000,266.70000000001164,63,,True,0.5,grey,FkyRcpz4tbditR5qN127erdU20c2
trial,171,,1,,1950,208.40000000002328,63,,True,0.5,grey,FkyRcpz4tbditR5qN127erdU20c2
trial,172,,1,,2050,207.5,64,,False,0.5,grey,FkyRcpz4tbditR5qN127erdU20c2
trial,173,,1,,2050,99.90000000002328,64,,False,0.5,grey,FkyRcpz4tbditR5qN127erdU20c2
trial,174,,2,,2150,58.20000000001164,65,,False,0.5,grey,FkyRcpz4tbditR5qN127erdU20c2
trial,175,,2,,2150,115.79999999998836,65,,False,0.5,grey,FkyRcpz4tbditR5qN127erdU20c2
trial,176,,1,,2100,224.90000000002328,65,,True,0.5,grey,FkyRcpz4tbditR5qN127erdU20c2
trial,177,,1,,2050,208.90000000002328,65,,True,0.5,grey,FkyRcpz4tbditR5qN127erdU20c2
trial,178,,1,,2000,208.40000000002328,65,,True,0.5,grey,FkyRcpz4tbditR5qN127erdU20c2
trial,179,,1,,2100,208.40000000002328,66,,False,0.5,grey,FkyRcpz4tbditR5qN127erdU20c2
trial,180,,1,,2050,83.30000000004657,66,,True,0.5,grey,FkyRcpz4tbditR5qN127erdU20c2
trial,1,,2,,100,1631.3999999999942,1,,False,0.5,grey,k1cLcY9iUbew9EuRYnh7e7VDim03
trial,2,,2,,200,1565.4000000000015,2,,False,0.5,grey,k1cLcY9iUbew9EuRYnh7e7VDim03
trial,3,,1,,300,1465.8999999999942,3,,False,0.5,grey,k1cLcY9iUbew9EuRYnh7e7VDim03
trial,4,,2,,400,1948.0,4,,False,0.5,grey,k1cLcY9iUbew9EuRYnh7e7VDim03
trial,5,,1,,350,1665.2000000000044,4,,True,0.5,grey,k1cLcY9iUbew9EuRYnh7e7VDim03
trial,6,,1,,300,882.3999999999942,4,,True,0.5,grey,k1cLcY9iUbew9EuRYnh7e7VDim03
trial,7,,1,,250,882.1999999999971,4,,True,0.5,grey,k1cLcY9iUbew9EuRYnh7e7VDim03
trial,8,,2,,350,666.3999999999942,5,,False,0.5,grey,k1cLcY9iUbew9EuRYnh7e7VDim03
trial,9,,2,,300,1882.5,5,,True,0.5,grey,k1cLcY9iUbew9EuRYnh7e7VDim03
trial,10,,1,,250,849.1999999999971,5,,True,0.5,grey,k1cLcY9iUbew9EuRYnh7e7VDim03
trial,11,,2,,200,716.4000000000087,5,,True,0.5,grey,k1cLcY9iUbew9EuRYnh7e7VDim03
trial,12,,1,,150,682.8000000000029,5,,True,0.5,grey,k1cLcY9iUbew9EuRYnh7e7VDim03
trial,13,,1,,250,499.3999999999942,6,,False,0.5,grey,k1cLcY9iUbew9EuRYnh7e7VDim03
trial,14,,2,,350,1215.5999999999913,7,,False,0.5,grey,k1cLcY9iUbew9EuRYnh7e7VDim03
trial,15,,1,,300,998.5,7,,True,0.5,grey,k1cLcY9iUbew9EuRYnh7e7VDim03
trial,16,,2,,400,499.3000000000029,8,,False,0.5,grey,k1cLcY9iUbew9EuRYnh7e7VDim03
trial,17,,2,,500,1731.8999999999942,9,,False,0.5,grey,k1cLcY9iUbew9EuRYnh7e7VDim03
trial,18,,2,,600,965.9000000000087,10,,False,0.5,grey,k1cLcY9iUbew9EuRYnh7e7VDim03
trial,19,,2,,700,1332.0999999999913,11,,False,0.5,grey,k1cLcY9iUbew9EuRYnh7e7VDim03
trial,20,,2,,800,1698.3999999999942,12,,False,0.5,grey,k1cLcY9iUbew9EuRYnh7e7VDim03
trial,21,,2,,750,1349.0,12,,True,0.5,grey,k1cLcY9iUbew9EuRYnh7e7VDim03
trial,22,,1,,850,849.5,13,,False,0.5,grey,k1cLcY9iUbew9EuRYnh7e7VDim03
trial,23,,2,,800,1698.199999999997,13,,True,0.5,grey,k1cLcY9iUbew9EuRYnh7e7VDim03
trial,24,,2,,750,599.5999999999913,13,,True,0.5,grey,k1cLcY9iUbew9EuRYnh7e7VDim03
trial,25,,1,,700,532.4000000000087,13,,True,0.5,grey,k1cLcY9iUbew9EuRYnh7e7VDim03
trial,26,,1,,700,566.5999999999913,13,,False,0.5,grey,k1cLcY9iUbew9EuRYnh7e7VDim03
trial,27,,2,,650,466.1999999999971,13,,True,0.5,grey,k1cLcY9iUbew9EuRYnh7e7VDim03
trial,28,,1,,600,532.3999999999942,13,,True,0.5,grey,k1cLcY9iUbew9EuRYnh7e7VDim03
trial,29,,2,,700,832.8999999999942,14,,False,0.5,grey,k1cLcY9iUbew9EuRYnh7e7VDim03
trial,30,,2,,800,1598.699999999997,15,,False,0.5,grey,k1cLcY9iUbew9EuRYnh7e7VDim03
trial,31,,2,,750,1548.0999999999913,15,,True,0.5,grey,k1cLcY9iUbew9EuRYnh7e7VDim03
trial,32,,1,,700,682.3000000000029,15,,True,0.5,grey,k1cLcY9iUbew9EuRYnh7e7VDim03
trial,33,,2,,800,549.6999999999825,16,,False,0.5,grey,k1cLcY9iUbew9EuRYnh7e7VDim03
trial,34,,2,,900,1598.5,17,,False,0.5,grey,k1cLcY9iUbew9EuRYnh7e7VDim03
trial,35,,2,,900,1397.8000000000175,17,,False,0.5,grey,k1cLcY9iUbew9EuRYnh7e7VDim03
trial,36,,2,,1000,949.0,18,,False,0.5,grey,k1cLcY9iUbew9EuRYnh7e7VDim03
trial,37,,2,,1100,1465.2999999999884,19,,False,0.5,grey,k1cLcY9iUbew9EuRYnh7e7VDim03
trial,38,,2,,1200,1482.1000000000058,20,,False,0.5,grey,k1cLcY9iUbew9EuRYnh7e7VDim03
trial,39,,2,,1300,1348.5,21,,False,0.5,grey,k1cLcY9iUbew9EuRYnh7e7VDim03
trial,40,,2,,1250,1698.1999999999825,21,,True,0.5,grey,k1cLcY9iUbew9EuRYnh7e7VDim03
trial,41,,2,,1350,449.70000000001164,22,,False,0.5,grey,k1cLcY9iUbew9EuRYnh7e7VDim03
trial,42,,2,,1350,1831.5,22,,False,0.5,grey,k1cLcY9iUbew9EuRYnh7e7VDim03
trial,43,,2,,1300,332.3999999999942,22,,True,0.5,grey,k1cLcY9iUbew9EuRYnh7e7VDim03
trial,44,,1,,1400,433.19999999998254,23,,False,0.5,grey,k1cLcY9iUbew9EuRYnh7e7VDim03
trial,45,,1,,1350,1799.2000000000116,23,,True,0.5,grey,k1cLcY9iUbew9EuRYnh7e7VDim03
trial,46,,1,,1300,882.5,23,,True,0.5,grey,k1cLcY9iUbew9EuRYnh7e7VDim03
trial,47,,2,,1400,649.0,24,,False,0.5,grey,k1cLcY9iUbew9EuRYnh7e7VDim03
trial,48,,2,,1500,1482.0,25,,False,0.5,grey,k1cLcY9iUbew9EuRYnh7e7VDim03
trial,49,,2,,1500,216.5,25,,False,0.5,grey,k1cLcY9iUbew9EuRYnh7e7VDim03
trial,50,,2,,1600,16.60000000000582,26,,False,0.5,grey,k1cLcY9iUbew9EuRYnh7e7VDim03
trial,51,,2,,1600,1848.3999999999942,26,,False,0.5,grey,k1cLcY9iUbew9EuRYnh7e7VDim03
trial,52,,2,,1700,299.79999999998836,27,,False,0.5,grey,k1cLcY9iUbew9EuRYnh7e7VDim03
trial,53,,2,,1700,616.4000000000233,27,,False,0.5,grey,k1cLcY9iUbew9EuRYnh7e7VDim03
trial,54,,2,,1650,667.0,27,,True,0.5,grey,k1cLcY9iUbew9EuRYnh7e7VDim03
trial,55,,2,,1750,549.5999999999767,28,,False,0.5,grey,k1cLcY9iUbew9EuRYnh7e7VDim03
trial,56,,2,,1850,1598.3999999999942,29,,False,0.5,grey,k1cLcY9iUbew9EuRYnh7e7VDim03
trial,57,,2,,1950,1666.0,30,,False,0.5,grey,k1cLcY9iUbew9EuRYnh7e7VDim03
trial,58,,2,,2050,1348.7000000000116,31,,False,0.5,grey,k1cLcY9iUbew9EuRYnh7e7VDim03
trial,59,,1,,2000,1365.0,31,,True,0.5,grey,k1cLcY9iUbew9EuRYnh7e7VDim03
trial,60,,2,,2100,798.8999999999942,32,,False,0.5,grey,k1cLcY9iUbew9EuRYnh7e7VDim03
trial,61,,2,,2200,1464.8000000000175,33,,False,0.5,grey,k1cLcY9iUbew9EuRYnh7e7VDim03
trial,62,,2,,2300,1498.7000000000116,34,,False,0.5,grey,k1cLcY9iUbew9EuRYnh7e7VDim03
trial,63,,2,,2400,683.6000000000058,35,,False,0.5,grey,k1cLcY9iUbew9EuRYnh7e7VDim03
trial,64,,2,,2500,882.0,36,,False,0.5,grey,k1cLcY9iUbew9EuRYnh7e7VDim03
trial,65,,2,,2450,1332.3999999999942,36,,True,0.5,grey,k1cLcY9iUbew9EuRYnh7e7VDim03
trial,66,,1,,2400,716.0,36,,True,0.5,grey,k1cLcY9iUbew9EuRYnh7e7VDim03
trial,67,,2,,2500,632.7999999999884,37,,False,0.5,grey,k1cLcY9iUbew9EuRYnh7e7VDim03
trial,68,,2,,2450,1431.8000000000175,37,,True,0.5,grey,k1cLcY9iUbew9EuRYnh7e7VDim03
trial,69,,2,,2400,699.3999999999942,37,,True,0.5,grey,k1cLcY9iUbew9EuRYnh7e7VDim03
trial,70,,2,,2500,999.0,38,,False,0.5,grey,k1cLcY9iUbew9EuRYnh7e7VDim03
trial,71,,2,,2450,1781.5,38,,True,0.5,grey,k1cLcY9iUbew9EuRYnh7e7VDim03
trial,72,,1,,2400,899.1000000000058,38,,True,0.5,grey,k1cLcY9iUbew9EuRYnh7e7VDim03
trial,73,,2,,2350,482.5,38,,True,0.5,grey,k1cLcY9iUbew9EuRYnh7e7VDim03
trial,74,,2,,2300,816.5,38,,True,0.5,grey,k1cLcY9iUbew9EuRYnh7e7VDim03
trial,75,,2,,2250,649.3000000000175,38,,True,0.5,grey,k1cLcY9iUbew9EuRYnh7e7VDim03
trial,76,,1,,2200,483.4000000000233,38,,True,0.5,grey,k1cLcY9iUbew9EuRYnh7e7VDim03
trial,77,,1,,2150,533.0,38,,True,0.5,grey,k1cLcY9iUbew9EuRYnh7e7VDim03
trial,78,,2,,2100,549.5,38,,True,0.5,grey,k1cLcY9iUbew9EuRYnh7e7VDim03
trial,79,,2,,2200,549.3999999999942,39,,False,0.5,grey,k1cLcY9iUbew9EuRYnh7e7VDim03
trial,80,,2,,2300,1715.0999999999767,40,,False,0.5,grey,k1cLcY9iUbew9EuRYnh7e7VDim03
trial,81,,2,,2250,1531.7000000000116,40,,True,0.5,grey,k1cLcY9iUbew9EuRYnh7e7VDim03
trial,82,,2,,2350,582.8999999999942,41,,False,0.5,grey,k1cLcY9iUbew9EuRYnh7e7VDim03
trial,83,,2,,2450,1248.3000000000175,42,,False,0.5,grey,k1cLcY9iUbew9EuRYnh7e7VDim03
trial,84,,2,,2550,999.5,43,,False,0.5,grey,k1cLcY9iUbew9EuRYnh7e7VDim03
trial,85,,2,,2500,981.8000000000175,43,,True,0.5,grey,k1cLcY9iUbew9EuRYnh7e7VDim03
trial,86,,2,,2600,450.1000000000349,44,,False,0.5,grey,k1cLcY9iUbew9EuRYnh7e7VDim03
trial,87,,2,,2700,1482.0999999999767,45,,False,0.5,grey,k1cLcY9iUbew9EuRYnh7e7VDim03
trial,88,,2,,2800,765.7999999999884,46,,False,0.5,grey,k1cLcY9iUbew9EuRYnh7e7VDim03
trial,89,,2,,2750,849.5999999999767,46,,True,0.5,grey,k1cLcY9iUbew9EuRYnh7e7VDim03
trial,90,,2,,2700,499.29999999998836,46,,True,0.5,grey,k1cLcY9iUbew9EuRYnh7e7VDim03
trial,91,,2,,2650,433.0,46,,True,0.5,grey,k1cLcY9iUbew9EuRYnh7e7VDim03
trial,92,,2,,2600,516.7999999999884,46,,True,0.5,grey,k1cLcY9iUbew9EuRYnh7e7VDim03
trial,93,,2,,2550,632.7999999999884,46,,True,0.5,grey,k1cLcY9iUbew9EuRYnh7e7VDim03
trial,94,,1,,2650,465.9000000000233,47,,False,0.5,grey,k1cLcY9iUbew9EuRYnh7e7VDim03
trial,95,,2,,2600,1465.4000000000233,47,,True,0.5,grey,k1cLcY9iUbew9EuRYnh7e7VDim03
trial,96,,1,,2600,532.5999999999767,47,,False,0.5,grey,k1cLcY9iUbew9EuRYnh7e7VDim03
trial,97,,1,,2700,149.90000000002328,48,,False,0.5,grey,k1cLcY9iUbew9EuRYnh7e7VDim03
trial,98,,1,,2650,1515.2000000000116,48,,True,0.5,grey,k1cLcY9iUbew9EuRYnh7e7VDim03
trial,99,,1,,2750,433.20000000001164,49,,False,0.5,grey,k1cLcY9iUbew9EuRYnh7e7VDim03
trial,100,,2,,2700,1598.5999999999767,49,,True,0.5,grey,k1cLcY9iUbew9EuRYnh7e7VDim03
trial,101,,1,,2800,599.7000000000116,50,,False,0.5,grey,k1cLcY9iUbew9EuRYnh7e7VDim03
trial,102,,1,,2900,1365.2999999999884,51,,False,0.5,grey,k1cLcY9iUbew9EuRYnh7e7VDim03
trial,103,,1,,3000,1548.5,52,,False,0.5,grey,k1cLcY9iUbew9EuRYnh7e7VDim03
trial,104,,1,,2950,1382.2999999999884,52,,True,0.5,grey,k1cLcY9iUbew9EuRYnh7e7VDim03
trial,105,,1,,3050,632.5,53,,False,0.5,grey,k1cLcY9iUbew9EuRYnh7e7VDim03
trial,106,,1,,3000,1631.9000000000233,53,,True,0.5,grey,k1cLcY9iUbew9EuRYnh7e7VDim03
trial,107,,2,,3100,849.4000000000233,54,,False,0.5,grey,k1cLcY9iUbew9EuRYnh7e7VDim03
trial,108,,2,,3050,1531.899999999965,54,,True,0.5,grey,k1cLcY9iUbew9EuRYnh7e7VDim03
trial,109,,1,,3150,799.9000000000233,55,,False,0.5,grey,k1cLcY9iUbew9EuRYnh7e7VDim03
trial,110,,1,,3150,1548.600000000035,55,,False,0.5,grey,k1cLcY9iUbew9EuRYnh7e7VDim03
trial,111,,1,,3100,316.0,55,,True,0.5,grey,k1cLcY9iUbew9EuRYnh7e7VDim03
trial,112,,1,,3050,432.5999999999767,55,,True,0.5,grey,k1cLcY9iUbew9EuRYnh7e7VDim03
trial,113,,2,,3150,632.9000000000233,56,,False,0.5,grey,k1cLcY9iUbew9EuRYnh7e7VDim03
trial,114,,1,,3100,1515.9000000000233,56,,True,0.5,grey,k1cLcY9iUbew9EuRYnh7e7VDim03
trial,115,,2,,3050,365.5,56,,True,0.5,grey,k1cLcY9iUbew9EuRYnh7e7VDim03
trial,116,,2,,3150,416.29999999998836,57,,False,0.5,grey,k1cLcY9iUbew9EuRYnh7e7VDim03
trial,117,,2,,3100,1699.3000000000466,57,,True,0.5,grey,k1cLcY9iUbew9EuRYnh7e7VDim03
trial,118,,2,,3200,382.29999999998836,58,,False,0.5,grey,k1cLcY9iUbew9EuRYnh7e7VDim03
trial,119,,2,,3300,1482.0999999999767,59,,False,0.5,grey,k1cLcY9iUbew9EuRYnh7e7VDim03
trial,120,,2,,3400,1399.100000000035,60,,False,0.5,grey,k1cLcY9iUbew9EuRYnh7e7VDim03
trial,121,,2,,3400,217.19999999995343,60,,False,0.5,grey,k1cLcY9iUbew9EuRYnh7e7VDim03
trial,122,,2,,3500,516.7000000000116,61,,False,0.5,grey,k1cLcY9iUbew9EuRYnh7e7VDim03
trial,123,,2,,3450,1348.9000000000233,61,,True,0.5,grey,k1cLcY9iUbew9EuRYnh7e7VDim03
trial,124,,2,,3400,483.0,61,,True,0.5,grey,k1cLcY9iUbew9EuRYnh7e7VDim03
trial,125,,1,,3500,632.8999999999651,62,,False,0.5,grey,k1cLcY9iUbew9EuRYnh7e7VDim03
trial,126,,2,,3600,1531.899999999965,63,,False,0.5,grey,k1cLcY9iUbew9EuRYnh7e7VDim03
trial,127,,2,,3700,1515.0,64,,False,0.5,grey,k1cLcY9iUbew9EuRYnh7e7VDim03
trial,128,,2,,3650,1382.4000000000233,64,,True,0.5,grey,k1cLcY9iUbew9EuRYnh7e7VDim03
trial,129,,1,,3600,666.6000000000349,64,,True,0.5,grey,k1cLcY9iUbew9EuRYnh7e7VDim03
trial,130,,1,,3550,649.6999999999534,64,,True,0.5,grey,k1cLcY9iUbew9EuRYnh7e7VDim03
trial,131,,2,,3500,465.79999999998836,64,,True,0.5,grey,k1cLcY9iUbew9EuRYnh7e7VDim03
trial,132,,2,,3450,550.3999999999651,64,,True,0.5,grey,k1cLcY9iUbew9EuRYnh7e7VDim03
trial,133,,2,,3400,566.1000000000349,64,,True,0.5,grey,k1cLcY9iUbew9EuRYnh7e7VDim03
trial,134,,1,,3400,416.3999999999651,64,,False,0.5,grey,k1cLcY9iUbew9EuRYnh7e7VDim03
trial,135,,1,,3500,1449.2999999999884,65,,False,0.5,grey,k1cLcY9iUbew9EuRYnh7e7VDim03
trial,136,,1,,3600,1432.2000000000116,66,,False,0.5,grey,k1cLcY9iUbew9EuRYnh7e7VDim03
trial,137,,1,,3700,1415.7999999999884,67,,False,0.5,grey,k1cLcY9iUbew9EuRYnh7e7VDim03
trial,138,,2,,3800,1382.0,68,,False,0.5,grey,k1cLcY9iUbew9EuRYnh7e7VDim03
trial,139,,2,,3750,1415.2000000000116,68,,True,0.5,grey,k1cLcY9iUbew9EuRYnh7e7VDim03
trial,140,,1,,3850,583.1000000000349,69,,False,0.5,grey,k1cLcY9iUbew9EuRYnh7e7VDim03
trial,141,,1,,3950,1299.0999999999767,70,,False,0.5,grey,k1cLcY9iUbew9EuRYnh7e7VDim03
trial,142,,1,,3900,183.19999999995343,70,,True,0.5,grey,k1cLcY9iUbew9EuRYnh7e7VDim03
trial,143,,1,,3850,499.4000000000233,70,,True,0.5,grey,k1cLcY9iUbew9EuRYnh7e7VDim03
trial,144,,2,,3800,383.20000000001164,70,,True,0.5,grey,k1cLcY9iUbew9EuRYnh7e7VDim03
trial,145,,2,,3750,499.8999999999651,70,,True,0.5,grey,k1cLcY9iUbew9EuRYnh7e7VDim03
trial,146,,1,,3700,533.0,70,,True,0.5,grey,k1cLcY9iUbew9EuRYnh7e7VDim03
trial,147,,1,,3700,449.29999999998836,70,,False,0.5,grey,k1cLcY9iUbew9EuRYnh7e7VDim03
trial,148,,1,,3800,83.5,71,,False,0.5,grey,k1cLcY9iUbew9EuRYnh7e7VDim03
trial,149,,2,,3750,1515.0999999999767,71,,True,0.5,grey,k1cLcY9iUbew9EuRYnh7e7VDim03
trial,150,,1,,3700,415.9000000000233,71,,True,0.5,grey,k1cLcY9iUbew9EuRYnh7e7VDim03
trial,151,,1,,3650,383.5999999999767,71,,True,0.5,grey,k1cLcY9iUbew9EuRYnh7e7VDim03
trial,152,,1,,3600,83.29999999998836,71,,True,0.5,grey,k1cLcY9iUbew9EuRYnh7e7VDim03
trial,153,,2,,3700,366.4000000000233,72,,False,0.5,grey,k1cLcY9iUbew9EuRYnh7e7VDim03
trial,154,,2,,3800,1781.9000000000233,73,,False,0.5,grey,k1cLcY9iUbew9EuRYnh7e7VDim03
trial,155,,2,,3900,1116.0,74,,False,0.5,grey,k1cLcY9iUbew9EuRYnh7e7VDim03
trial,156,,2,,3850,799.4000000000233,74,,True,0.5,grey,k1cLcY9iUbew9EuRYnh7e7VDim03
trial,157,,2,,3950,448.69999999995343,75,,False,0.5,grey,k1cLcY9iUbew9EuRYnh7e7VDim03
trial,158,,2,,3950,1448.5999999999767,75,,False,0.5,grey,k1cLcY9iUbew9EuRYnh7e7VDim03
trial,159,,2,,3900,383.1000000000349,75,,True,0.5,grey,k1cLcY9iUbew9EuRYnh7e7VDim03
trial,160,,1,,3850,732.6000000000349,75,,True,0.5,grey,k1cLcY9iUbew9EuRYnh7e7VDim03
trial,161,,2,,3850,616.0,75,,False,0.5,grey,k1cLcY9iUbew9EuRYnh7e7VDim03
trial,162,,2,,3950,0.0,76,,False,0.5,grey,k1cLcY9iUbew9EuRYnh7e7VDim03
trial,163,,2,,4050,1482.2000000000116,77,,False,0.5,grey,k1cLcY9iUbew9EuRYnh7e7VDim03
trial,164,,2,,4000,1365.100000000035,77,,True,0.5,grey,k1cLcY9iUbew9EuRYnh7e7VDim03
trial,165,,1,,4100,865.7999999999884,78,,False,0.5,grey,k1cLcY9iUbew9EuRYnh7e7VDim03
trial,166,,1,,4050,33.600000000034925,78,,True,0.5,grey,k1cLcY9iUbew9EuRYnh7e7VDim03
trial,167,,1,,4000,533.0,78,,True,0.5,grey,k1cLcY9iUbew9EuRYnh7e7VDim03
trial,168,,2,,3950,349.5,78,,True,0.5,grey,k1cLcY9iUbew9EuRYnh7e7VDim03
trial,169,,2,,3950,299.5,78,,False,0.5,grey,k1cLcY9iUbew9EuRYnh7e7VDim03
trial,170,,2,,4050,82.90000000002328,79,,False,0.5,grey,k1cLcY9iUbew9EuRYnh7e7VDim03
trial,171,,2,,4000,1814.899999999965,79,,True,0.5,grey,k1cLcY9iUbew9EuRYnh7e7VDim03
trial,172,,2,,4100,449.70000000001164,80,,False,0.5,grey,k1cLcY9iUbew9EuRYnh7e7VDim03
trial,173,,2,,4050,1564.8000000000466,80,,True,0.5,grey,k1cLcY9iUbew9EuRYnh7e7VDim03
trial,174,,1,,4000,665.5999999999767,80,,True,0.5,grey,k1cLcY9iUbew9EuRYnh7e7VDim03
trial,175,,1,,4100,533.2000000000116,81,,False,0.5,grey,k1cLcY9iUbew9EuRYnh7e7VDim03
trial,176,,2,,4050,1815.0,81,,True,0.5,grey,k1cLcY9iUbew9EuRYnh7e7VDim03
trial,177,,1,,4000,582.5999999999767,81,,True,0.5,grey,k1cLcY9iUbew9EuRYnh7e7VDim03
trial,178,,2,,3950,549.5999999999767,81,,True,0.5,grey,k1cLcY9iUbew9EuRYnh7e7VDim03
trial,179,,1,,4050,482.79999999998836,82,,False,0.5,grey,k1cLcY9iUbew9EuRYnh7e7VDim03
trial,180,,2,,4000,2031.399999999965,82,,True,0.5,grey,k1cLcY9iUbew9EuRYnh7e7VDim03
trial,1,,2,,100,1133.0,1,,False,0.5,grey,pelxGxa7m2V231ffdohHtZtOsoL2
trial,2,,1,,50,1900.0,1,,True,0.5,grey,pelxGxa7m2V231ffdohHtZtOsoL2
trial,3,,2,,0,1284.0,1,,True,0.5,grey,pelxGxa7m2V231ffdohHtZtOsoL2
trial,4,,1,,100,1750.0,2,,False,0.5,grey,pelxGxa7m2V231ffdohHtZtOsoL2
trial,5,,1,,200,2334.0,3,,False,0.5,grey,pelxGxa7m2V231ffdohHtZtOsoL2
trial,6,,1,,300,1651.0,4,,False,0.5,grey,pelxGxa7m2V231ffdohHtZtOsoL2
trial,7,,1,,400,1934.0,5,,False,0.5,grey,pelxGxa7m2V231ffdohHtZtOsoL2
trial,8,,1,,350,3033.0,5,,True,0.5,grey,pelxGxa7m2V231ffdohHtZtOsoL2
trial,9,,2,,450,1118.0,6,,False,0.5,grey,pelxGxa7m2V231ffdohHtZtOsoL2
trial,10,,1,,550,3050.0,7,,False,0.5,grey,pelxGxa7m2V231ffdohHtZtOsoL2
trial,11,,2,,650,1684.0,8,,False,0.5,grey,pelxGxa7m2V231ffdohHtZtOsoL2
trial,12,,2,,600,1601.0,8,,True,0.5,grey,pelxGxa7m2V231ffdohHtZtOsoL2
trial,13,,1,,700,883.0,9,,False,0.5,grey,pelxGxa7m2V231ffdohHtZtOsoL2
trial,14,,1,,650,2617.0,9,,True,0.5,grey,pelxGxa7m2V231ffdohHtZtOsoL2
trial,15,,1,,750,733.0,10,,False,0.5,grey,pelxGxa7m2V231ffdohHtZtOsoL2
trial,16,,1,,700,1551.0,10,,True,0.5,grey,pelxGxa7m2V231ffdohHtZtOsoL2
trial,17,,1,,800,683.0,11,,False,0.5,grey,pelxGxa7m2V231ffdohHtZtOsoL2
trial,18,,2,,750,1600.0,11,,True,0.5,grey,pelxGxa7m2V231ffdohHtZtOsoL2
trial,19,,1,,750,833.0,11,,False,0.5,grey,pelxGxa7m2V231ffdohHtZtOsoL2
trial,20,,1,,850,867.0,12,,False,0.5,grey,pelxGxa7m2V231ffdohHtZtOsoL2
trial,21,,1,,800,2083.0,12,,True,0.5,grey,pelxGxa7m2V231ffdohHtZtOsoL2
trial,22,,2,,900,800.0,13,,False,0.5,grey,pelxGxa7m2V231ffdohHtZtOsoL2
trial,23,,2,,900,1782.0,13,,False,0.5,grey,pelxGxa7m2V231ffdohHtZtOsoL2
trial,24,,2,,900,650.0,13,,False,0.5,grey,pelxGxa7m2V231ffdohHtZtOsoL2
trial,25,,2,,850,350.0,13,,True,0.5,grey,pelxGxa7m2V231ffdohHtZtOsoL2
trial,26,,1,,800,550.0,13,,True,0.5,grey,pelxGxa7m2V231ffdohHtZtOsoL2
trial,27,,1,,750,583.0,13,,True,0.5,grey,pelxGxa7m2V231ffdohHtZtOsoL2
trial,28,,1,,700,583.0,13,,True,0.5,grey,pelxGxa7m2V231ffdohHtZtOsoL2
trial,29,,2,,800,567.0,14,,False,0.5,grey,pelxGxa7m2V231ffdohHtZtOsoL2
trial,30,,2,,900,1617.0,15,,False,0.5,grey,pelxGxa7m2V231ffdohHtZtOsoL2
trial,31,,2,,1000,2133.0,16,,False,0.5,grey,pelxGxa7m2V231ffdohHtZtOsoL2
trial,32,,2,,1100,2950.0,17,,False,0.5,grey,pelxGxa7m2V231ffdohHtZtOsoL2
trial,33,,2,,1050,2334.0,17,,True,0.5,grey,pelxGxa7m2V231ffdohHtZtOsoL2
trial,34,,1,,1000,1784.0,17,,True,0.5,grey,pelxGxa7m2V231ffdohHtZtOsoL2
trial,35,,2,,1100,1085.0,18,,False,0.5,grey,pelxGxa7m2V231ffdohHtZtOsoL2
trial,36,,2,,1200,1618.0,19,,False,0.5,grey,pelxGxa7m2V231ffdohHtZtOsoL2
trial,37,,2,,1300,1517.0,20,,False,0.5,grey,pelxGxa7m2V231ffdohHtZtOsoL2
trial,38,,1,,1250,3317.0,20,,True,0.5,grey,pelxGxa7m2V231ffdohHtZtOsoL2
trial,39,,2,,1350,734.0,21,,False,0.5,grey,pelxGxa7m2V231ffdohHtZtOsoL2
trial,40,,2,,1450,1902.0,22,,False,0.5,grey,pelxGxa7m2V231ffdohHtZtOsoL2
trial,41,,2,,1400,3050.0,22,,True,0.5,grey,pelxGxa7m2V231ffdohHtZtOsoL2
trial,42,,1,,1500,834.0,23,,False,0.5,grey,pelxGxa7m2V231ffdohHtZtOsoL2
trial,43,,1,,1600,1650.0,24,,False,0.5,grey,pelxGxa7m2V231ffdohHtZtOsoL2
trial,44,,1,,1700,2583.0,25,,False,0.5,grey,pelxGxa7m2V231ffdohHtZtOsoL2
trial,45,,2,,1650,1550.0,25,,True,0.5,grey,pelxGxa7m2V231ffdohHtZtOsoL2
trial,46,,1,,1750,517.0,26,,False,0.5,grey,pelxGxa7m2V231ffdohHtZtOsoL2
trial,47,,1,,1850,1584.0,27,,False,0.5,grey,pelxGxa7m2V231ffdohHtZtOsoL2
trial,48,,1,,1950,1416.0,28,,False,0.5,grey,pelxGxa7m2V231ffdohHtZtOsoL2
trial,49,,1,,2050,1267.0,29,,False,0.5,grey,pelxGxa7m2V231ffdohHtZtOsoL2
trial,50,,1,,2150,1500.0,30,,False,0.5,grey,pelxGxa7m2V231ffdohHtZtOsoL2
trial,51,,1,,2250,1533.0,31,,False,0.5,grey,pelxGxa7m2V231ffdohHtZtOsoL2
trial,52,,1,,2200,1433.0,31,,True,0.5,grey,pelxGxa7m2V231ffdohHtZtOsoL2
trial,53,,1,,2150,550.0,31,,True,0.5,grey,pelxGxa7m2V231ffdohHtZtOsoL2
trial,54,,1,,2100,600.0,31,,True,0.5,grey,pelxGxa7m2V231ffdohHtZtOsoL2
trial,55,,2,,2050,500.0,31,,True,0.5,grey,pelxGxa7m2V231ffdohHtZtOsoL2
trial,56,,1,,2000,567.0,31,,True,0.5,grey,pelxGxa7m2V231ffdohHtZtOsoL2
trial,57,,1,,2100,666.0,32,,False,0.5,grey,pelxGxa7m2V231ffdohHtZtOsoL2
trial,58,,1,,2200,1500.0,33,,False,0.5,grey,pelxGxa7m2V231ffdohHtZtOsoL2
trial,59,,1,,2150,1834.0,33,,True,0.5,grey,pelxGxa7m2V231ffdohHtZtOsoL2
trial,60,,2,,2100,666.0,33,,True,0.5,grey,pelxGxa7m2V231ffdohHtZtOsoL2
trial,61,,2,,2050,767.0,33,,True,0.5,grey,pelxGxa7m2V231ffdohHtZtOsoL2
trial,62,,2,,2150,550.0,34,,False,0.5,grey,pelxGxa7m2V231ffdohHtZtOsoL2
trial,63,,2,,2250,1649.0,35,,False,0.5,grey,pelxGxa7m2V231ffdohHtZtOsoL2
trial,64,,2,,2350,2234.0,36,,False,0.5,grey,pelxGxa7m2V231ffdohHtZtOsoL2
trial,65,,2,,2450,1933.0,37,,False,0.5,grey,pelxGxa7m2V231ffdohHtZtOsoL2
trial,66,,1,,2400,2617.0,37,,True,0.5,grey,pelxGxa7m2V231ffdohHtZtOsoL2
trial,67,,1,,2500,1967.0,38,,False,0.5,grey,pelxGxa7m2V231ffdohHtZtOsoL2
trial,68,,2,,2600,1883.0,39,,False,0.5,grey,pelxGxa7m2V231ffdohHtZtOsoL2
trial,69,,2,,2550,1633.0,39,,True,0.5,grey,pelxGxa7m2V231ffdohHtZtOsoL2
trial,70,,1,,2500,550.0,39,,True,0.5,grey,pelxGxa7m2V231ffdohHtZtOsoL2
trial,71,,1,,2450,1084.0,39,,True,0.5,grey,pelxGxa7m2V231ffdohHtZtOsoL2
trial,72,,2,,2550,1017.0,40,,False,0.5,grey,pelxGxa7m2V231ffdohHtZtOsoL2
trial,73,,2,,2650,1467.0,41,,False,0.5,grey,pelxGxa7m2V231ffdohHtZtOsoL2
trial,74,,1,,2750,1616.0,42,,False,0.5,grey,pelxGxa7m2V231ffdohHtZtOsoL2
trial,75,,1,,2850,1500.0,43,,False,0.5,grey,pelxGxa7m2V231ffdohHtZtOsoL2
trial,76,,1,,2800,1784.0,43,,True,0.5,grey,pelxGxa7m2V231ffdohHtZtOsoL2
trial,77,,2,,2750,650.0,43,,True,0.5,grey,pelxGxa7m2V231ffdohHtZtOsoL2
trial,78,,1,,2700,350.0,43,,True,0.5,grey,pelxGxa7m2V231ffdohHtZtOsoL2
trial,79,,1,,2800,517.0,44,,False,0.5,grey,pelxGxa7m2V231ffdohHtZtOsoL2
trial,80,,1,,2750,1516.0,44,,True,0.5,grey,pelxGxa7m2V231ffdohHtZtOsoL2
trial,81,,1,,2850,366.0,45,,False,0.5,grey,pelxGxa7m2V231ffdohHtZtOsoL2
trial,82,,2,,2950,16.0,46,,False,0.5,grey,pelxGxa7m2V231ffdohHtZtOsoL2
trial,83,,2,,2900,967.0,46,,True,0.5,grey,pelxGxa7m2V231ffdohHtZtOsoL2
trial,84,,2,,3000,384.0,47,,False,0.5,grey,pelxGxa7m2V231ffdohHtZtOsoL2
trial,85,,1,,3100,1600.0,48,,False,0.5,grey,pelxGxa7m2V231ffdohHtZtOsoL2
trial,86,,1,,3050,817.0,48,,True,0.5,grey,pelxGxa7m2V231ffdohHtZtOsoL2
trial,87,,2,,3000,333.0,48,,True,0.5,grey,pelxGxa7m2V231ffdohHtZtOsoL2
trial,88,,2,,2950,367.0,48,,True,0.5,grey,pelxGxa7m2V231ffdohHtZtOsoL2
trial,89,,1,,3050,0.0,49,,False,0.5,grey,pelxGxa7m2V231ffdohHtZtOsoL2
trial,90,,2,,3000,1050.0,49,,True,0.5,grey,pelxGxa7m2V231ffdohHtZtOsoL2
trial,91,,1,,2950,300.0,49,,True,0.5,grey,pelxGxa7m2V231ffdohHtZtOsoL2
trial,92,,1,,2900,316.0,49,,True,0.5,grey,pelxGxa7m2V231ffdohHtZtOsoL2
trial,93,,1,,2900,67.0,49,,False,0.5,grey,pelxGxa7m2V231ffdohHtZtOsoL2
trial,94,,1,,2850,883.0,49,,True,0.5,grey,pelxGxa7m2V231ffdohHtZtOsoL2
trial,95,,1,,2800,0.0,49,,True,0.5,grey,pelxGxa7m2V231ffdohHtZtOsoL2
trial,96,,2,,2900,799.0,50,,False,0.5,grey,pelxGxa7m2V231ffdohHtZtOsoL2
trial,97,,2,,3000,1618.0,51,,False,0.5,grey,pelxGxa7m2V231ffdohHtZtOsoL2
trial,98,,1,,2950,1834.0,51,,True,0.5,grey,pelxGxa7m2V231ffdohHtZtOsoL2
trial,99,,1,,3050,333.0,52,,False,0.5,grey,pelxGxa7m2V231ffdohHtZtOsoL2
trial,100,,1,,3000,1316.0,52,,True,0.5,grey,pelxGxa7m2V231ffdohHtZtOsoL2
trial,101,,1,,3100,333.0,53,,False,0.5,grey,pelxGxa7m2V231ffdohHtZtOsoL2
trial,102,,2,,3200,1700.0,54,,False,0.5,grey,pelxGxa7m2V231ffdohHtZtOsoL2
trial,103,,2,,3150,2000.0,54,,True,0.5,grey,pelxGxa7m2V231ffdohHtZtOsoL2
trial,104,,1,,3100,532.0,54,,True,0.5,grey,pelxGxa7m2V231ffdohHtZtOsoL2
trial,105,,1,,3050,417.0,54,,True,0.5,grey,pelxGxa7m2V231ffdohHtZtOsoL2
trial,106,,1,,3000,450.0,54,,True,0.5,grey,pelxGxa7m2V231ffdohHtZtOsoL2
trial,107,,1,,2950,801.0,54,,True,0.5,grey,pelxGxa7m2V231ffdohHtZtOsoL2
trial,108,,2,,3050,466.0,55,,False,0.5,grey,pelxGxa7m2V231ffdohHtZtOsoL2
trial,109,,1,,3000,1867.0,55,,True,0.5,grey,pelxGxa7m2V231ffdohHtZtOsoL2
trial,110,,1,,2950,316.0,55,,True,0.5,grey,pelxGxa7m2V231ffdohHtZtOsoL2
trial,111,,2,,2900,466.0,55,,True,0.5,grey,pelxGxa7m2V231ffdohHtZtOsoL2
trial,112,,1,,2900,334.0,55,,False,0.5,grey,pelxGxa7m2V231ffdohHtZtOsoL2
trial,113,,1,,3000,184.0,56,,False,0.5,grey,pelxGxa7m2V231ffdohHtZtOsoL2
trial,114,,1,,3100,1601.0,57,,False,0.5,grey,pelxGxa7m2V231ffdohHtZtOsoL2
trial,115,,1,,3050,1267.0,57,,True,0.5,grey,pelxGxa7m2V231ffdohHtZtOsoL2
trial,116,,1,,3150,383.0,58,,False,0.5,grey,pelxGxa7m2V231ffdohHtZtOsoL2
trial,117,,2,,3100,1851.0,58,,True,0.5,grey,pelxGxa7m2V231ffdohHtZtOsoL2
trial,118,,2,,3200,550.0,59,,False,0.5,grey,pelxGxa7m2V231ffdohHtZtOsoL2
trial,119,,1,,3150,1867.0,59,,True,0.5,grey,pelxGxa7m2V231ffdohHtZtOsoL2
trial,120,,1,,3100,450.0,59,,True,0.5,grey,pelxGxa7m2V231ffdohHtZtOsoL2
trial,121,,2,,3050,483.0,59,,True,0.5,grey,pelxGxa7m2V231ffdohHtZtOsoL2
trial,122,,1,,3000,417.0,59,,True,0.5,grey,pelxGxa7m2V231ffdohHtZtOsoL2
trial,123,,2,,3100,383.0,60,,False,0.5,grey,pelxGxa7m2V231ffdohHtZtOsoL2
trial,124,,1,,3050,667.0,60,,True,0.5,grey,pelxGxa7m2V231ffdohHtZtOsoL2
trial,125,,2,,3050,350.0,60,,False,0.5,grey,pelxGxa7m2V231ffdohHtZtOsoL2
trial,126,,2,,3150,17.0,61,,False,0.5,grey,pelxGxa7m2V231ffdohHtZtOsoL2
trial,127,,2,,3150,34.0,61,,False,0.5,grey,pelxGxa7m2V231ffdohHtZtOsoL2
trial,128,,1,,3100,34.0,61,,True,0.5,grey,pelxGxa7m2V231ffdohHtZtOsoL2
trial,129,,1,,3050,183.0,61,,True,0.5,grey,pelxGxa7m2V231ffdohHtZtOsoL2
trial,130,,1,,3150,234.0,62,,False,0.5,grey,pelxGxa7m2V231ffdohHtZtOsoL2
trial,131,,1,,3100,32.0,62,,True,0.5,grey,pelxGxa7m2V231ffdohHtZtOsoL2
trial,132,,1,,3050,68.0,62,,True,0.5,grey,pelxGxa7m2V231ffdohHtZtOsoL2
trial,133,,2,,3000,400.0,62,,True,0.5,grey,pelxGxa7m2V231ffdohHtZtOsoL2
trial,134,,1,,3100,634.0,63,,False,0.5,grey,pelxGxa7m2V231ffdohHtZtOsoL2
trial,135,,1,,3050,1334.0,63,,True,0.5,grey,pelxGxa7m2V231ffdohHtZtOsoL2
trial,136,,1,,3000,283.0,63,,True,0.5,grey,pelxGxa7m2V231ffdohHtZtOsoL2
trial,137,,1,,2950,334.0,63,,True,0.5,grey,pelxGxa7m2V231ffdohHtZtOsoL2
trial,138,,1,,2900,316.0,63,,True,0.5,grey,pelxGxa7m2V231ffdohHtZtOsoL2
trial,139,,2,,3000,550.0,64,,False,0.5,grey,pelxGxa7m2V231ffdohHtZtOsoL2
trial,140,,2,,3100,1367.0,65,,False,0.5,grey,pelxGxa7m2V231ffdohHtZtOsoL2
trial,141,,2,,3200,1883.0,66,,False,0.5,grey,pelxGxa7m2V231ffdohHtZtOsoL2
trial,142,,2,,3300,1617.0,67,,False,0.5,grey,pelxGxa7m2V231ffdohHtZtOsoL2
trial,143,,2,,3400,1649.0,68,,False,0.5,grey,pelxGxa7m2V231ffdohHtZtOsoL2
trial,144,,2,,3350,1734.0,68,,True,0.5,grey,pelxGxa7m2V231ffdohHtZtOsoL2
trial,145,,2,,3450,634.0,69,,False,0.5,grey,pelxGxa7m2V231ffdohHtZtOsoL2
trial,146,,2,,3550,1383.0,70,,False,0.5,grey,pelxGxa7m2V231ffdohHtZtOsoL2
trial,147,,2,,3650,1501.0,71,,False,0.5,grey,pelxGxa7m2V231ffdohHtZtOsoL2
trial,148,,2,,3750,1450.0,72,,False,0.5,grey,pelxGxa7m2V231ffdohHtZtOsoL2
trial,149,,2,,3850,1534.0,73,,False,0.5,grey,pelxGxa7m2V231ffdohHtZtOsoL2
trial,150,,2,,3950,1251.0,74,,False,0.5,grey,pelxGxa7m2V231ffdohHtZtOsoL2
trial,151,,2,,4050,1317.0,75,,False,0.5,grey,pelxGxa7m2V231ffdohHtZtOsoL2
trial,152,,1,,4000,2835.0,75,,True,0.5,grey,pelxGxa7m2V231ffdohHtZtOsoL2
trial,153,,2,,4100,567.0,76,,False,0.5,grey,pelxGxa7m2V231ffdohHtZtOsoL2
trial,154,,1,,4050,2967.0,76,,True,0.5,grey,pelxGxa7m2V231ffdohHtZtOsoL2
trial,155,,2,,4000,400.0,76,,True,0.5,grey,pelxGxa7m2V231ffdohHtZtOsoL2
trial,156,,2,,4100,283.0,77,,False,0.5,grey,pelxGxa7m2V231ffdohHtZtOsoL2
trial,157,,2,,4200,801.0,78,,False,0.5,grey,pelxGxa7m2V231ffdohHtZtOsoL2
trial,158,,2,,4150,1251.0,78,,True,0.5,grey,pelxGxa7m2V231ffdohHtZtOsoL2
trial,159,,2,,4100,366.0,78,,True,0.5,grey,pelxGxa7m2V231ffdohHtZtOsoL2
trial,160,,2,,4200,367.0,79,,False,0.5,grey,pelxGxa7m2V231ffdohHtZtOsoL2
trial,161,,2,,4150,984.0,79,,True,0.5,grey,pelxGxa7m2V231ffdohHtZtOsoL2
trial,162,,2,,4250,383.0,80,,False,0.5,grey,pelxGxa7m2V231ffdohHtZtOsoL2
trial,163,,1,,4350,1284.0,81,,False,0.5,grey,pelxGxa7m2V231ffdohHtZtOsoL2
trial,164,,2,,4300,1217.0,81,,True,0.5,grey,pelxGxa7m2V231ffdohHtZtOsoL2
trial,165,,2,,4250,334.0,81,,True,0.5,grey,pelxGxa7m2V231ffdohHtZtOsoL2
trial,166,,2,,4350,300.0,82,,False,0.5,grey,pelxGxa7m2V231ffdohHtZtOsoL2
trial,167,,2,,4450,1250.0,83,,False,0.5,grey,pelxGxa7m2V231ffdohHtZtOsoL2
